timestamp,position_x,position_y,position_z,acceleration_x,acceleration_y,acceleration_z,angular_velocity_x,angular_velocity_y,angular_velocity_z
1741258104.6507285,0.0,0.0,0.0,0.21168719232082367,-9.39871883392334,2.5931038856506348,0.021065691486001015,-0.04152034595608711,0.014769297093153
1741258104.7744637,0.0009844175074249506,-0.0003801551356445998,8.242361946031451e-05,0.20216087996959686,-9.379707336425781,2.5977821350097656,-0.10226374119520187,-0.10594094544649124,0.19481582939624786
1741258104.8337927,0.0009926061611622572,-0.000405492028221488,-5.099090776639059e-05,0.22595366835594177,-9.379660606384277,2.609978437423706,-0.07049775868654251,-0.04189890995621681,0.1350921243429184
1741258104.8899693,0.0008944064029492438,-0.00044381493353284895,-8.001999231055379e-05,0.1926504671573639,-9.389286041259766,2.6051464080810547,0.14062504470348358,-0.16435131430625916,0.01366585772484541
1741258104.951351,0.0006966473301872611,-0.00043970558908768,-7.617098890477791e-05,0.19025781750679016,-9.391687393188477,2.612201690673828,-0.007031426299363375,0.05249932035803795,-0.07456908375024796
1741258105.0125208,0.00022033143613953143,-0.0003954590647481382,-7.538257341366261e-05,0.19738632440567017,-9.394028663635254,2.6072158813476562,0.17166805267333984,-0.1030779629945755,-0.046136222779750824
1741258105.070292,4.450212509254925e-05,-0.00041108904406428337,-0.00011384731624275446,0.21878431737422943,-9.374926567077637,2.6167261600494385,-0.03867863491177559,0.050356898456811905,0.04566066712141037
1741258105.1281643,-0.00013509206473827362,-0.0003957269072998315,-0.00015283352695405483,0.19503065943717957,-9.415459632873535,2.600313663482666,-0.12805859744548798,-0.04045013710856438,-0.07446715235710144
1741258105.189035,-0.00024004802980925888,-0.00038578605744987726,-0.0001791772519936785,0.20688854157924652,-9.391646385192871,2.62155818939209,-0.0664420947432518,0.021907823160290718,-0.13419727981090546
1741258105.244341,-0.0003279644879512489,-0.00037727688322775066,-0.00020191837393213063,0.19741816818714142,-9.391607284545898,2.5858945846557617,0.051667794585227966,-0.040273141115903854,0.014816992916166782
1741258105.304251,-0.00040666694985702634,-0.00036963517777621746,-0.00022236653603613377,0.19026295840740204,-9.384563446044922,2.619565486907959,-0.03677964210510254,0.05447358265519142,0.015736516565084457
1741258105.362251,-0.0004777996800839901,-0.0003627253172453493,-0.0002408592845313251,0.21402350068092346,-9.393996238708496,2.6191039085388184,0.05252101272344589,-0.009140736423432827,0.015282800421118736
1741258105.4208052,-0.0005421759560704231,-0.00035647142794914544,-0.0002575969265308231,0.22110126912593842,-9.382149696350098,2.6618223190307617,-0.09621287882328033,0.14579805731773376,-0.043070487678050995
1741258105.4759262,-0.0006004479946568608,-0.0003508104709908366,-0.00027274771127849817,0.1356177181005478,-9.40600299835205,2.538188934326172,-0.06729581952095032,-0.13245366513729095,-0.10484647750854492
1741258105.5293067,-0.0006531962426379323,-0.0003456861595623195,-0.0002864622510969639,0.2567846477031708,-9.384410858154297,2.6618223190307617,0.0223369337618351,-0.06998953968286514,-0.044754114001989365
1741258105.5892115,-0.0007009441033005714,-0.0003410475910641253,-0.00029887675191275775,0.17841067910194397,-9.396377563476562,2.559587001800537,-0.037931617349386215,-0.10110358893871307,-0.01449195109307766
1741258105.6461034,-0.000744165969081223,-0.00033684875234030187,-0.0003101144393440336,0.2639458477497101,-9.37484359741211,2.6500887870788574,0.08141621947288513,0.05398041382431984,0.16577434539794922
1741258105.703257,-0.0007832905976101756,-0.0003330479084979743,-0.00032028689747676253,0.16645900905132294,-9.40603256225586,2.6047611236572266,-0.12794111669063568,-0.00854052510112524,0.0465029701590538
1741258105.758192,-0.0008187064668163657,-0.00032960737007670105,-0.0003294950583949685,0.19974884390830994,-9.38691234588623,2.6239356994628906,0.11271629482507706,-0.09909169375896454,0.015038915909826756
1741258105.8097801,-0.0008507651509717107,-0.00032649296917952597,-0.00033783033723011613,0.20928119122982025,-9.389244079589844,2.614502429962158,0.08256346732378006,0.02420184575021267,0.1355932652950287
1741258105.864913,-0.0008797850459814072,-0.000323673797538504,-0.00034537550527602434,0.20927345752716064,-9.377341270446777,2.616802930831909,-0.005608038976788521,0.02566596306860447,-0.044160544872283936
1741258105.9223077,-0.0009060538723133504,-0.00032112185726873577,-0.0003522054466884583,0.18551376461982727,-9.403597831726074,2.6051464080810547,-0.12710823118686676,0.025169724598526955,0.04604634642601013
1741258105.9792666,-0.0009298326913267374,-0.00031881179893389344,-0.0003583879442885518,0.18548883497714996,-9.375022888183594,2.609593391418457,-0.06837132573127747,-0.19209054112434387,-0.015369611792266369
1741258106.0338895,-0.0009513574186712503,-0.00031672074692323804,-0.0003639844071585685,0.20690619945526123,-9.391599655151367,2.600005626678467,-0.06687899678945541,-0.16063006222248077,-0.10486238449811935
1741258106.0882745,-0.0009708417346701026,-0.00031482792110182345,-0.0003690503363031894,0.19259582459926605,-9.39411449432373,2.640655517578125,-0.12409960478544235,-0.0340355783700943,-0.22372472286224365
1741258106.1442804,-0.0009884791215881705,-0.00031311449129134417,-0.00037363608134910464,0.19499537348747253,-9.384530067443848,2.6167261600494385,-0.09745214134454727,-0.09828522056341171,0.01551520824432373
1741258106.2020135,-0.00100444455165416,-0.0003115634899586439,-0.00037778710247948766,0.19975876808166504,-9.396393775939941,2.604684352874756,0.05259815603494644,-0.03660625219345093,0.10471409559249878
1741258106.261088,-0.0010188965825363994,-0.0003101595211774111,-0.00038154463982209563,0.19735406339168549,-9.386907577514648,2.6212501525878906,0.053794316947460175,-0.09720738977193832,-0.045534536242485046
1741258106.318239,-0.0010319787543267012,-0.0003088886442128569,-0.00038494597538374364,0.20687909424304962,-9.403548240661621,2.621403932571411,-0.008354822173714638,-0.06695432215929031,0.13468925654888153
1741258106.380179,-0.0010438207536935806,-0.0003077382280025631,-0.0003880249278154224,0.20691004395484924,-9.417825698852539,2.612201690673828,-0.004919710569083691,0.09050863981246948,-0.014330570586025715
1741258106.4496644,-0.001054540160112083,-0.00030669686384499073,-0.0003908119979314506,0.2164066880941391,-9.389209747314453,2.611893653869629,-0.06647888571023941,-0.06594323366880417,-0.015063525177538395
1741258106.507083,-0.0010642434936016798,-0.0003057542198803276,-0.00039333486347459257,0.1997716724872589,-9.379740715026855,2.6097471714019775,-0.09561268240213394,-0.1259787678718567,-0.10501362383365631
1741258106.5650604,-0.001073027029633522,-0.0003049009246751666,-0.00039561858284287155,0.211674302816391,-9.401083946228027,2.588040828704834,-0.006279118359088898,-0.09640368074178696,-0.015348045155405998
1741258106.6185846,-0.001080977963283658,-0.00030412853811867535,-0.00039768582792021334,0.20213808119297028,-9.389259338378906,2.611970901489258,-0.0054412661120295525,-0.0027530118823051453,0.015016958117485046
1741258106.6755204,-0.0010881751077249646,-0.00030342937679961324,-0.0003995570878032595,0.1998043656349182,-9.393959045410156,2.5763070583343506,0.11431215703487396,-0.12556059658527374,-0.01626022346317768
1741258106.7263384,-0.0010946900583803654,-0.00030279645579867065,-0.0004012509889435023,0.20929884910583496,-9.391579627990723,2.5929503440856934,0.11324950307607651,-0.15662610530853271,0.04370075836777687
1741258106.778815,-0.001100587542168796,-0.00030222354689612985,-0.0004027843242511153,0.1973927766084671,-9.40594482421875,2.6097471714019775,0.05458893999457359,0.06071283295750618,0.07500172406435013
1741258106.8316176,-0.001105925883166492,-0.0003017049457412213,-0.0004041723150294274,0.20453031361103058,-9.393983840942383,2.597628116607666,-0.03425118327140808,0.029892686754465103,-0.07481031864881516
1741258106.8871973,-0.0011107581667602062,-0.0003012355009559542,-0.00040542869828641415,0.20930011570453644,-9.405856132507324,2.5881175994873047,-0.18439891934394836,0.06059528514742851,-0.104209765791893
1741258106.9530957,-0.0011151324724778533,-0.0003008105559274554,-0.0004065660177730024,0.1878470778465271,-9.38935375213623,2.6335229873657227,-0.03420790284872055,-0.03011433035135269,-0.13526679575443268
1741258107.032458,-0.001119091990403831,-0.0003004258906003088,-0.00040759550756774843,0.1854797899723053,-9.40361213684082,2.6167261600494385,-0.0062449839897453785,-0.06270351260900497,-0.01554512046277523
1741258107.1170826,-0.0011226763017475605,-0.0003000776923727244,-0.0004085274413228035,0.19738933444023132,-9.389261245727539,2.6048383712768555,0.11438106745481491,0.12329746782779694,0.10471274703741074
1741258107.2004335,-0.0011259207967668772,-0.000299762497888878,-0.0004093710158485919,0.2021634578704834,-9.386829376220703,2.5881175994873047,-0.06576449424028397,-0.03156917169690132,-0.04533611983060837
1741258107.2774456,-0.001128857722505927,-0.00029947719303891063,-0.00041013461304828525,0.19260144233703613,-9.37503719329834,2.6286139488220215,-0.064159095287323,0.06238960847258568,-0.0746120736002922
1741258107.3537512,-0.0011315162992104888,-0.00029921892564743757,-0.00041082582902163267,0.18783119320869446,-9.40124797821045,2.6308372020721436,0.05529466271400452,0.0003829241613857448,-0.046006862074136734
1741258107.4201183,-0.0011339228367432952,-0.00029898513457737863,-0.000411451532272622,0.20682574808597565,-9.391697883605957,2.652081251144409,-0.06391943246126175,0.03109380044043064,-0.10552088916301727
1741258107.4909577,-0.0011361012002453208,-0.0002987735206261277,-0.0004120179219171405,0.21403081715106964,-9.38206958770752,2.609516143798828,0.11459793150424957,-0.02969249337911606,0.04328915849328041
1741258107.5681038,-0.0011380731593817472,-0.0002985819592140615,-0.0004125306149944663,0.20692212879657745,-9.403451919555664,2.5759990215301514,0.023594405502080917,-0.21640202403068542,-0.017021717503666878
1741258107.6357865,-0.0011398581555113196,-0.0002984085294883698,-0.0004129947046749294,0.21399424970149994,-9.365438461303711,2.630760431289673,0.1130492091178894,-0.031082050874829292,0.1635027676820755
1741258107.7041342,-0.0011414738837629557,-0.00029825157253071666,-0.00041341481846757233,0.2235778123140335,-9.39626693725586,2.5809082984924316,0.14634130895137787,0.12556038796901703,0.07443394511938095
1741258107.7764244,-0.0011429365258663893,-0.0002981094876304269,-0.00041379508911632,0.2211567759513855,-9.374909400939941,2.614194393157959,-0.00570440199226141,-0.12186921387910843,0.013244710862636566
1741258107.8433685,-0.001144260517321527,-0.0002979808778036386,-0.00041413932922296226,0.17599907517433167,-9.386930465698242,2.593027114868164,-0.2140272855758667,0.06460273265838623,-0.014837315306067467
1741258107.9053323,-0.0011454588966444135,-0.0002978644333779812,-0.0004144509439356625,0.24255819618701935,-9.370041847229004,2.601921319961548,0.022409096360206604,-0.18582767248153687,0.10290113836526871
1741258108.0278466,-0.0011465437710285187,-0.00029775904840789735,-0.0004147329891566187,0.19971919059753418,-9.379767417907715,2.628305673599243,-0.005509178154170513,-0.02896268293261528,0.043617408722639084
1741258108.108832,-0.0011475258506834507,-0.0002976636460516602,-0.00041498831706121564,0.18312327563762665,-9.396432876586914,2.5952506065368652,0.08592288941144943,-0.057815056294202805,-0.04695751890540123
1741258108.1792088,-0.0011484147980809212,-0.00029757729498669505,-0.000415219459682703,0.22112880647182465,-9.386821746826172,2.621018886566162,0.14594055712223053,0.06460212916135788,0.013318683952093124
1741258108.2437487,-0.001149219460785389,-0.00029749912209808826,-0.000415428658016026,0.19496871531009674,-9.40357494354248,2.618718385696411,0.11775942891836166,-0.026551203802227974,-0.19641393423080444
1741258108.3251538,-0.00114994787145406,-0.0002974283415824175,-0.000415618036640808,0.21168935298919678,-9.40582275390625,2.576153039932251,0.023372409865260124,0.003025290323421359,0.13370290398597717
1741258108.3909857,-0.001150607131421566,-0.0002973643131554127,-0.0004157894873060286,0.2211972177028656,-9.386743545532227,2.578453779220581,0.025620203465223312,0.004772039595991373,-0.07616455852985382
1741258108.4625134,-0.0011512039927765727,-0.0002973063092213124,-0.0004159446689300239,0.1759534776210785,-9.386982917785645,2.621403932571411,-0.09468863904476166,-0.08717416971921921,-0.13645775616168976
1741258108.5253649,-0.0011517442762851715,-0.0002972538350149989,-0.0004160851240158081,0.2307196408510208,-9.39864444732666,2.5882720947265625,0.1750715672969818,0.036853473633527756,0.07339034229516983
1741258108.5984309,-0.0011522333370521665,-0.0002972063375636935,-0.0004162122786510736,0.19258293509483337,-9.389333724975586,2.6355926990509033,0.05458763986825943,0.03586675599217415,0.013891259208321571
1741258108.6707911,-0.0011526760645210743,-0.00029716332210227847,-0.00041632738430052996,0.23543570935726166,-9.398646354675293,2.602152109146118,-0.1543893665075302,0.09695889055728912,-0.07527821511030197
1741258108.7370324,-0.0011530767660588026,-0.00029712438117712736,-0.00041643157601356506,0.19501043856143951,-9.391651153564453,2.6048383712768555,-0.006876103114336729,-0.11894060671329498,0.042647574096918106
1741258108.8042955,-0.0011534395162016153,-0.00029708913643844426,-0.00041652590152807534,0.2116437554359436,-9.40111255645752,2.604529857635498,-0.006764979101717472,-0.05800597742199898,0.042593155056238174
1741258108.8767028,-0.0011537678074091673,-0.0002970572386402637,-0.00041661126306280494,0.2211356908082962,-9.403517723083496,2.6308372020721436,-0.12503571808338165,-0.056046150624752045,-0.10652773827314377
1741258108.9490595,-0.0011540651321411133,-0.0002970283676404506,-0.00041668853373266757,0.19501562416553497,-9.410655975341797,2.5855093002319336,-0.15608510375022888,0.06612376868724823,0.04393598437309265
1741258109.0221345,-0.0011543341679498553,-0.00029700223240070045,-0.00041675849934108555,0.21638217568397522,-9.370179176330566,2.6236276626586914,0.05652180314064026,0.06866898387670517,-0.07675787806510925
1741258109.0883665,-0.0011545777088031173,-0.0002969785709865391,-0.0004168218292761594,0.1854914128780365,-9.398812294006348,2.599928617477417,-0.03512589633464813,-0.0551888644695282,-0.04726148769259453
1741258109.1606176,-0.0011547981994226575,-0.00029695715056732297,-0.0004168791347183287,0.2092614471912384,-9.396344184875488,2.599620819091797,-0.004940117709338665,0.005873629357665777,-0.047253917902708054
1741258109.234314,-0.0011549977352842689,-0.0002969377674162388,-0.00041693102684803307,0.20209938287734985,-9.389272689819336,2.6234734058380127,-0.12472168356180191,0.03733913227915764,-0.07632909715175629
1741258109.3047812,-0.0011551784118637443,-0.0002969202178064734,-0.00041697800043039024,0.18788668513298035,-9.370194435119629,2.5832087993621826,-0.0644395649433136,0.09974909573793411,-0.016098251566290855
1741258109.3753219,-0.0011553418589755893,-0.000296904327115044,-0.0004170205211266875,0.2187512069940567,-9.379674911499023,2.6161868572235107,0.08472634106874466,-0.05503818392753601,-0.07733798772096634
1741258109.4501405,-0.0011554899392649531,-0.00029688994982279837,-0.00041705899639055133,0.20451439917087555,-9.38920783996582,2.594942569732666,0.08543246239423752,0.06967675685882568,-0.04644555598497391
1741258109.5187218,-0.001155623933300376,-0.0002968769404105842,-0.00041709383367560804,0.18545442819595337,-9.415501594543457,2.6138863563537598,0.053071122616529465,0.06782319396734238,0.1337307095527649
1741258109.596549,-0.0011557452380657196,-0.00029686515335924923,-0.00041712538222782314,0.19974370300769806,-9.408323287963867,2.6165719032287598,-0.03455066680908203,0.0703779011964798,-0.046251438558101654
1741258109.661937,-0.0011558550177142024,-0.00029685450135730207,-0.0004171539330855012,0.20686016976833344,-9.379727363586426,2.621095895767212,0.053786758333444595,0.03783893212676048,0.07358613610267639
1741258109.7264917,-0.0011559544363990426,-0.00029684483888559043,-0.00041717971907928586,0.2116515040397644,-9.384439468383789,2.602229356765747,-0.0069006020203232765,-0.05433693528175354,0.04331235960125923
1741258109.8034878,-0.001156044309027493,-0.0002968361077364534,-0.00041720314766280353,0.19259929656982422,-9.37977409362793,2.61887264251709,-0.06840778142213821,-0.11663947254419327,0.07315777242183685
1741258109.8726084,-0.0011561257997527719,-0.0002968281914945692,-0.00041722433525137603,0.19261091947555542,-9.37735652923584,2.6020753383636475,-0.007829691283404827,-0.08572983741760254,0.07282818108797073
1741258109.9417887,-0.0011561994906514883,-0.0002968210319522768,-0.00041724348557181656,0.1901894509792328,-9.405987739562988,2.6280746459960938,0.08373728394508362,0.1311204582452774,0.07339856028556824
1741258110.0028245,-0.0011562661966308951,-0.000296814541798085,-0.0004172608314547688,0.21641360223293304,-9.396315574645996,2.5950193405151367,0.051972776651382446,-0.17730990052223206,0.011972027830779552
1741258110.069041,-0.0011563266161829233,-0.0002968086628243327,-0.0004172765475232154,0.19257737696170807,-9.38691520690918,2.6209421157836914,-0.006915686652064323,0.007805447094142437,0.013243453577160835
1741258110.1384978,-0.001156381331384182,-0.0002968033659271896,-0.0004172907501924783,0.19499368965625763,-9.417795181274414,2.587578773498535,-0.06701857596635818,0.0073677897453308105,0.013279485516250134
1741258110.2021341,-0.0011564308078959584,-0.00029679856379516423,-0.00041730364318937063,0.21400199830532074,-9.384486198425293,2.6284596920013428,0.08299664407968521,-0.11324309557676315,-0.018285010010004044
1741258110.2705529,-0.0011564756277948618,-0.0002967941982205957,-0.0004173152847215533,0.204507514834404,-9.401154518127441,2.611816883087158,0.05311201885342598,0.0715753510594368,0.10289414972066879
1741258110.3452125,-0.0011565161403268576,-0.00029679026920348406,-0.00041732582030817866,0.20451052486896515,-9.40114974975586,2.6094391345977783,-0.00825187936425209,-0.021374356001615524,0.13248565793037415
1741258110.4139671,-0.0011565529275685549,-0.0002967866894323379,-0.00041733536636456847,0.18781010806560516,-9.41550064086914,2.6207878589630127,0.14308373630046844,-0.08332090824842453,-0.04810531064867973
1741258110.4843998,-0.0011565861059352756,-0.0002967834589071572,-0.0004173440102022141,0.1925683319568634,-9.394072532653809,2.6280746459960938,-0.15708938241004944,0.07096268236637115,0.013864466920495033
1741258110.5572972,-0.001156616141088307,-0.0002967805485241115,-0.000417351839132607,0.19500315189361572,-9.393985748291016,2.5877327919006348,-0.06688794493675232,-0.08263597637414932,-0.07739387452602386
1741258110.6269972,-0.0011566433822736144,-0.00029677790007553995,-0.00041735891136340797,0.18544280529022217,-9.3941068649292,2.630683183670044,-0.21591074764728546,0.1038292646408081,-0.07599253952503204
1741258110.7010164,-0.0011566680623218417,-0.0002967755135614425,-0.00041736531420610845,0.19022387266159058,-9.384492874145508,2.5970890522003174,-0.007311457302421331,-0.021649332717061043,0.012329322285950184
1741258110.7703972,-0.0011566904140636325,-0.00029677333077415824,-0.0004173711349721998,0.1878225952386856,-9.384544372558594,2.6185646057128906,-0.00710817938670516,0.04069623351097107,0.04287905618548393
1741258110.8344657,-0.0011567105539143085,-0.00029677138081751764,-0.000417376373661682,0.2069191038608551,-9.396313667297363,2.5783767700195312,0.11399935185909271,0.011022130027413368,0.04225382208824158
1741258110.8901236,-0.0011567288311198354,-0.0002967696054838598,-0.00041738111758604646,0.2044786810874939,-9.386902809143066,2.630760431289673,0.08332692086696625,-0.05077391862869263,0.041864290833473206
1741258110.9561357,-0.0011567453620955348,-0.00029676800477318466,-0.00041738542495295405,0.18781396746635437,-9.396484375,2.632983684539795,-0.009096818044781685,-0.052988793700933456,0.16137656569480896
1741258111.0273695,-0.0011567603796720505,-0.0002967665495816618,-0.00041738932486623526,0.2092614471912384,-9.401106834411621,2.599620819091797,-0.007379986345767975,-0.05207419395446777,0.041143499314785004
1741258111.0976253,-0.0011567740002647042,-0.0002967652108054608,-0.0004173928464297205,0.20209765434265137,-9.389266014099121,2.621018886566162,-0.006449212785810232,0.07221488654613495,0.07169194519519806
1741258111.171225,-0.001156786223873496,-0.0002967640175484121,-0.00041739604785107076,0.19730716943740845,-9.394047737121582,2.6277666091918945,-0.008109808899462223,-0.08441317826509476,0.07109633088111877
1741258111.242424,-0.0011567973997443914,-0.0002967629407066852,-0.000417398929130286,0.19023634493350983,-9.415448188781738,2.594865322113037,-0.12517306208610535,0.13431480526924133,-0.017186973243951797
1741258111.3204825,-0.0011568074114620686,-0.0002967619802802801,-0.0004174015484750271,0.2020903378725052,-9.396431922912598,2.630605936050415,0.02489427477121353,0.04198528453707695,-0.01836671493947506
1741258111.4005287,-0.001156816491857171,-0.00029676107806153595,-0.0004174039058852941,0.20925241708755493,-9.391595840454102,2.606753349304199,-0.037242088466882706,-0.1447141319513321,0.04088808596134186
1741258111.4668376,-0.0011568247573450208,-0.0002967602922581136,-0.0004174060595687479,0.1973622739315033,-9.394000053405762,2.599544048309326,0.025741789489984512,-0.019870875403285027,-0.04829571396112442
1741258111.5415163,-0.0011568322079256177,-0.0002967595646623522,-0.0004174080095253885,0.2092614471912384,-9.379674911499023,2.599620819091797,0.024145005270838737,-0.14420157670974731,0.011243465356528759
1741258111.608425,-0.0011568389600142837,-0.0002967588952742517,-0.0004174097557552159,0.1997118592262268,-9.389245986938477,2.6112008094787598,-0.06725700944662094,-0.17715470492839813,0.04125940054655075
1741258111.6703844,-0.0011568451300263405,-0.00029675831319764256,-0.00041741132736206055,0.18544667959213257,-9.398835182189941,2.6161868572235107,-0.06403376162052155,0.10324176400899887,0.012812141329050064
1741258111.7377737,-0.0011568506015464664,-0.0002967577602248639,-0.0004174127825535834,0.19971273839473724,-9.389283180236816,2.6257741451263428,-0.036310307681560516,0.009363580495119095,0.16206835210323334
1741258111.803082,-0.001156855607405305,-0.0002967572945635766,-0.00041741409222595394,0.19970111548900604,-9.408303260803223,2.6158788204193115,-0.09503208100795746,-0.021702265366911888,-0.017909957095980644
1741258111.8778057,-0.0011568601476028562,-0.00029675685800611973,-0.0004174152563791722,0.20684941112995148,-9.415453910827637,2.6257741451263428,-0.15492543578147888,0.01041246484965086,0.01246245764195919
1741258111.9471724,-0.00115686422213912,-0.00029675645055249333,-0.0004174163332208991,0.20208173990249634,-9.405921936035156,2.618333339691162,-0.06496484577655792,0.009122624062001705,0.012112940661609173
1741258112.017869,-0.0011568679474294186,-0.0002967560722026974,-0.0004174172936473042,0.199738547205925,-9.415446281433105,2.609208106994629,-0.033937595784664154,-0.019671177491545677,-0.017762301489710808
1741258112.084255,-0.0011568713234737515,-0.00029675575206056237,-0.0004174181376583874,0.20685285329818726,-9.401180267333984,2.630683183670044,0.02544628269970417,-0.08139903843402863,0.01172221265733242
1741258112.1530185,-0.001156874350272119,-0.0002967554610222578,-0.0004174189525656402,0.20445935428142548,-9.379731178283691,2.6231656074523926,0.08456090837717056,-0.14431363344192505,0.011155806481838226
1741258112.226653,-0.001156877144239843,-0.0002967551990877837,-0.00041741968016140163,0.21400457620620728,-9.391608238220215,2.618795394897461,0.1764756590127945,-0.11050988733768463,-0.049109507352113724
1741258112.295945,-0.0011568795889616013,-0.00029675496625714004,-0.0004174203204456717,0.19735577702522278,-9.391609191894531,2.5970120429992676,-0.1251712292432785,0.01003376953303814,0.042442791163921356
1741258112.3728933,-0.0011568819172680378,-0.0002967547334264964,-0.0004174209025222808,0.21877360343933105,-9.391536712646484,2.5947113037109375,-0.003791238646954298,-0.01903722807765007,-0.048218734562397
1741258112.4447951,-0.0011568840127438307,-0.0002967545296996832,-0.0004174214554950595,0.1949700266122818,-9.386895179748535,2.6138863563537598,0.0870877057313919,-0.017181968316435814,-0.07876861840486526
1741258112.5127795,-0.001156885758973658,-0.00029675435507670045,-0.0004174219211563468,0.1997501701116562,-9.396360397338867,2.5924110412597656,-0.06363335251808167,-0.08032216876745224,-0.10811973363161087
1741258112.5794115,-0.0011568875052034855,-0.0002967541804537177,-0.00041742235771380365,0.21161451935768127,-9.403510093688965,2.6161868572235107,-0.03364293649792671,0.16617685556411743,0.07310085743665695
1741258112.654469,-0.0011568890186026692,-0.0002967540349345654,-0.00041742276516743004,0.20208390057086945,-9.39404010772705,2.6280746459960938,-0.03397676348686218,-0.049610644578933716,-0.0476938933134079
1741258112.7198966,-0.0011568902991712093,-0.0002967539185192436,-0.000417423143517226,0.2045002281665802,-9.384440422058105,2.5947113037109375,0.11537186056375504,-0.05010519549250603,0.04174083098769188
1741258112.8023264,-0.0011568915797397494,-0.00029675380210392177,-0.00041742343455553055,0.19496183097362518,-9.398784637451172,2.6089000701904297,-0.09457974135875702,-0.11268366128206253,-0.047434963285923004
1741258112.87353,-0.0011568927438929677,-0.00029675368568859994,-0.0004174237255938351,0.19738246500492096,-9.417742729187012,2.5683276653289795,-0.002225027419626713,0.10393833369016647,-0.04642286151647568
1741258112.9482687,-0.0011568936752155423,-0.0002967535692732781,-0.0004174239875283092,0.21159902215003967,-9.393989562988281,2.6207878589630127,-0.0647939071059227,-0.0820990577340126,0.01329772174358368
1741258113.0185459,-0.001156894606538117,-0.00029675348196178675,-0.0004174242203589529,0.20451872050762177,-9.408242225646973,2.5877327919006348,0.11629444360733032,-0.11102903634309769,0.012333027087152004
1741258113.0901856,-0.0011568955378606915,-0.00029675342375412583,-0.00041742445318959653,0.19968004524707794,-9.389286041259766,2.632521867752075,-0.1535845398902893,-0.019866319373250008,-0.04643380641937256
1741258113.1623237,-0.0011568962363526225,-0.00029675333644263446,-0.00041742465691640973,0.1616315245628357,-9.401308059692383,2.6254661083221436,-0.06348785012960434,0.011804805137217045,-0.016499603167176247
1741258113.2299008,-0.0011568969348445535,-0.00029675327823497355,-0.00041742483153939247,0.1973450481891632,-9.38685417175293,2.6016902923583984,0.08702628314495087,0.07403693348169327,0.012976415455341339
1741258113.3081846,-0.0011568975169211626,-0.00029675322002731264,-0.00041742497705854475,0.204457625746727,-9.38448715209961,2.620710849761963,-0.12607690691947937,-0.020703772082924843,0.133074089884758
1741258113.3866541,-0.0011568980989977717,-0.0002967531618196517,-0.00041742512257769704,0.20448775589466095,-9.374914169311523,2.5969350337982178,0.08655235916376114,-0.01899745687842369,0.01219228096306324
1741258113.462794,-0.001156898564659059,-0.0002967531036119908,-0.0004174252680968493,0.187818706035614,-9.379749298095703,2.6063685417175293,-0.0361119769513607,-0.08261214941740036,0.1020420640707016
1741258113.5363493,-0.0011568990303203464,-0.00029675307450816035,-0.00041742538451217115,0.19256874918937683,-9.408310890197754,2.608668804168701,-0.03309851139783859,0.0733184739947319,-0.046975161880254745
1741258113.603214,-0.0011568994959816337,-0.00029675301630049944,-0.000417425500927493,0.20211485028266907,-9.37967586517334,2.5921802520751953,0.05605792626738548,-0.04976145178079605,-0.04815252125263214
1741258113.6745946,-0.0011568998452275991,-0.000296752987196669,-0.00041742558823898435,0.20923176407814026,-9.38681697845459,2.6039910316467285,0.055448487401008606,-0.049955885857343674,-0.01836836338043213
1741258113.740458,-0.0011569001944735646,-0.0002967529580928385,-0.0004174256755504757,0.2068304866552353,-9.40115737915039,2.6254661083221436,-0.0948525071144104,-0.08077774196863174,-0.07796665281057358
1741258113.8086424,-0.00115690054371953,-0.00029675292898900807,-0.0004174257628619671,0.1829899400472641,-9.396536827087402,2.658597946166992,-0.06535182893276215,-0.01980351097881794,-0.01804102025926113
1741258113.8744006,-0.0011569007765501738,-0.0002967528998851776,-0.000417425821069628,0.23539528250694275,-9.391509056091309,2.6112008094787598,0.05535902827978134,0.04244961589574814,0.041574034839868546
1741258113.943879,-0.0011569010093808174,-0.00029675287078134716,-0.0004174258792772889,0.20210325717926025,-9.396383285522461,2.6089770793914795,-0.032592177391052246,0.10586757957935333,-0.07771969586610794
1741258114.0097253,-0.001156901242211461,-0.0002967528416775167,-0.0004174259665887803,0.20923219621181488,-9.389216423034668,2.6112775802612305,-0.034013498574495316,0.04311726987361908,-0.018152223899960518
1741258114.0731122,-0.0011569014750421047,-0.0002967528416775167,-0.00041742599569261074,0.21396978199481964,-9.386822700500488,2.6158018112182617,0.11596344411373138,-0.049683742225170135,-0.04908089339733124
1741258114.14853,-0.0011569017078727484,-0.00029675281257368624,-0.00041742605390027165,0.21165324747562408,-9.403429985046387,2.577991485595703,-0.007561166305094957,-0.23598648607730865,0.07006843388080597
1741258114.2135618,-0.0011569018242880702,-0.0002967527834698558,-0.00041742611210793257,0.22587153315544128,-9.384381294250488,2.6062145233154297,0.08508669584989548,0.07301744818687439,0.07106686383485794
1741258114.2851448,-0.001156901940703392,-0.0002967527834698558,-0.000417426141211763,0.21163730323314667,-9.398721694946289,2.6019983291625977,-0.0939464420080185,-0.10941864550113678,-0.13888181746006012
1741258114.3522043,-0.0011569021735340357,-0.00029675275436602533,-0.0004174261703155935,0.19257690012454987,-9.391658782958984,2.6136550903320312,0.027475327253341675,0.04481815546751022,-0.13834159076213837
1741258114.4235432,-0.0011569022899493575,-0.00029675275436602533,-0.00041742619941942394,0.20206581056118011,-9.379714965820312,2.615647792816162,-0.06575542688369751,-0.0820002406835556,-0.048824772238731384
1741258114.4922438,-0.0011569024063646793,-0.00029675275436602533,-0.0004174262285232544,0.22350682318210602,-9.393919944763184,2.606445789337158,-0.09480298310518265,0.012040863744914532,-0.018245579674839973
1741258114.568627,-0.0011569025227800012,-0.00029675272526219487,-0.00041742625762708485,0.19968174397945404,-9.38691234588623,2.634976387023926,-0.09535139054059982,-0.08138265460729599,0.011118077673017979
1741258114.6347275,-0.0011569025227800012,-0.00029675272526219487,-0.0004174262867309153,0.2045118510723114,-9.38440227508545,2.5779144763946533,0.14706158638000488,0.043964140117168427,0.010335270315408707
1741258114.707435,-0.001156902639195323,-0.00029675272526219487,-0.00041742631583474576,0.2258431315422058,-9.384435653686523,2.6324446201324463,0.11639569699764252,0.012698706239461899,0.010380636900663376
1741258114.776352,-0.0011569027556106448,-0.0002967526961583644,-0.00041742631583474576,0.2211223691701889,-9.377287864685059,2.6184873580932617,-0.004015864338725805,-0.048736415803432465,0.010134439915418625
1741258114.8480122,-0.0011569027556106448,-0.0002967526961583644,-0.0004174263449385762,0.1925889551639557,-9.384495735168457,2.604145050048828,-0.12463563680648804,-0.04967835545539856,0.04032435268163681
1741258114.9304354,-0.0011569028720259666,-0.0002967526961583644,-0.0004174263740424067,0.2091982066631317,-9.403519630432129,2.6228575706481934,-0.09569570422172546,-0.05121587961912155,0.099854975938797
1741258114.9977565,-0.0011569028720259666,-0.0002967526961583644,-0.0004174263740424067,0.19970281422138214,-9.396405220031738,2.618333339691162,-0.1268082857131958,-0.05158513784408569,0.22023656964302063
1741258115.0717525,-0.0011569029884412885,-0.0002967526961583644,-0.00041742640314623713,0.18542346358299255,-9.379792213439941,2.6230885982513428,0.05775490775704384,-0.017309879884123802,-0.08052777498960495
1741258115.1404517,-0.0011569029884412885,-0.00029675266705453396,-0.00041742640314623713,0.22824440896511078,-9.377239227294922,2.6109695434570312,0.08726413547992706,-0.01923293061554432,-0.020598094910383224
1741258115.213874,-0.0011569031048566103,-0.00029675266705453396,-0.00041742640314623713,0.2092248946428299,-9.379646301269531,2.594172239303589,0.17581230401992798,-0.0823432058095932,0.06857004761695862
1741258115.2827368,-0.0011569031048566103,-0.00029675266705453396,-0.0004174264322500676,0.20205247402191162,-9.39403247833252,2.629990339279175,0.024946385994553566,-0.08243130147457123,0.12931999564170837
1741258115.3626208,-0.0011569031048566103,-0.00029675266705453396,-0.0004174264322500676,0.2163478136062622,-9.391541481018066,2.6012279987335205,0.11360771209001541,-0.053276415914297104,0.27913588285446167
1741258115.4423828,-0.0011569031048566103,-0.00029675266705453396,-0.0004174264322500676,0.2020985335111618,-9.410601615905762,2.582207679748535,0.029354741796851158,0.04313055798411369,-0.13978111743927002
1741258115.5186057,-0.0011569032212719321,-0.00029675266705453396,-0.00041742646135389805,0.19971317052841187,-9.38923454284668,2.6063685417175293,0.026523062959313393,-0.1723463088274002,-0.02089633420109749
1741258115.6276307,-0.0011569032212719321,-0.00029675266705453396,-0.00041742646135389805,0.19971704483032227,-9.386819839477539,2.591872215270996,0.1486525535583496,0.07540193945169449,-0.02005869708955288
1741258115.6999493,-0.0011569032212719321,-0.00029675266705453396,-0.00041742646135389805,0.18304672837257385,-9.396428108215332,2.606137752532959,0.026801209896802902,-0.14172549545764923,-0.04993655905127525
1741258115.7718105,-0.0011569032212719321,-0.00029675266705453396,-0.00041742646135389805,0.2044675350189209,-9.398730278015137,2.60145902633667,0.026094965636730194,-0.11115144193172455,0.0399932824075222
1741258115.8459442,-0.0011569032212719321,-0.00029675266705453396,-0.00041742646135389805,0.19733256101608276,-9.360660552978516,2.6039140224456787,0.029805127531290054,0.19963030517101288,-0.018456945195794106
1741258115.9246392,-0.001156903337687254,-0.00029675266705453396,-0.0004174264904577285,0.1996886432170868,-9.39163589477539,2.6181023120880127,0.08735603839159012,0.0746028795838356,0.1005394384264946
1741258115.9949903,-0.001156903337687254,-0.0002967526379507035,-0.0004174264904577285,0.21396201848983765,-9.398731231689453,2.6181023120880127,0.08672977983951569,-0.01834947057068348,0.09985186904668808
1741258116.0762994,-0.001156903337687254,-0.0002967526379507035,-0.0004174264904577285,0.21636459231376648,-9.386761665344238,2.591794729232788,0.02745394967496395,0.07407411932945251,0.10086235404014587
1741258116.1449,-0.001156903337687254,-0.0002967526379507035,-0.0004174264904577285,0.18777181208133698,-9.386957168579102,2.6395773887634277,-0.09322769194841385,-0.01799776218831539,0.0708705335855484
1741258116.214979,-0.001156903337687254,-0.0002967526379507035,-0.0004174264904577285,0.21637019515037537,-9.389115333557129,2.5797531604766846,-0.0318022146821022,-0.01864681951701641,-0.048699285835027695
1741258116.2921298,-0.001156903337687254,-0.0002967526379507035,-0.0004174264904577285,0.20683610439300537,-9.39160442352295,2.613424062728882,-0.09220479428768158,-0.04863189160823822,0.01107050571590662
1741258116.3683822,-0.001156903337687254,-0.0002967526379507035,-0.0004174264904577285,0.21158571541309357,-9.389191627502441,2.60843825340271,-0.0915425717830658,-0.04889495670795441,-0.07891228795051575
1741258116.4363596,-0.001156903337687254,-0.0002967526379507035,-0.0004174264904577285,0.18542692065238953,-9.394026756286621,2.6013050079345703,-0.09145893901586533,0.04315507784485817,0.0413389727473259
1741258116.5093074,-0.001156903337687254,-0.0002967526379507035,-0.0004174264904577285,0.20680728554725647,-9.38925838470459,2.6323673725128174,0.05869365856051445,-0.017690937966108322,0.04079282656311989
1741258116.6017303,-0.001156903337687254,-0.0002967526379507035,-0.0004174264904577285,0.19971704483032227,-9.389200210571289,2.591872215270996,-0.029873162508010864,0.07504443824291229,-0.018363764509558678
1741258116.678236,-0.001156903337687254,-0.0002967526379507035,-0.0004174264904577285,0.20204216241836548,-9.384467124938965,2.615262508392334,0.029597563669085503,0.012191122397780418,-0.049086302518844604
1741258116.7525797,-0.0011569034541025758,-0.0002967526379507035,-0.00041742651956155896,0.20205636322498322,-9.38685417175293,2.6154937744140625,0.028891567140817642,0.012924863025546074,0.01105663925409317
1741258116.8236222,-0.0011569034541025758,-0.0002967526379507035,-0.00041742651956155896,0.2044443041086197,-9.365400314331055,2.608360767364502,-0.0615246444940567,-0.07991146296262741,-0.04893891513347626
1741258116.894029,-0.0011569034541025758,-0.0002967526379507035,-0.00041742651956155896,0.19733212888240814,-9.391599655151367,2.5966269969940186,0.00022758737031836063,0.04542841017246246,-0.0783427506685257
1741258116.9719307,-0.0011569034541025758,-0.0002967526379507035,-0.00041742651956155896,0.20682191848754883,-9.382073402404785,2.6131935119628906,-0.0022895275615155697,-0.01787569746375084,0.04098692536354065
1741258117.0531476,-0.0011569034541025758,-0.0002967526379507035,-0.00041742651956155896,0.19255195558071136,-9.384515762329102,2.6181023120880127,0.030076203867793083,0.10764765739440918,-0.04802314564585686
1741258117.1214252,-0.0011569034541025758,-0.0002967526379507035,-0.00041742651956155896,0.2067943811416626,-9.401147842407227,2.6273045539855957,-0.0014619773719459772,0.01259748823940754,-0.018171945586800575
1741258117.1936727,-0.0011569034541025758,-0.0002967526379507035,-0.00041742651956155896,0.19016534090042114,-9.394050598144531,2.6204028129577637,-0.08992201834917068,0.045576635748147964,-0.10786209255456924
1741258117.260677,-0.0011569034541025758,-0.0002967526379507035,-0.00041742651956155896,0.2020890712738037,-9.377259254455566,2.5820536613464355,0.06030562147498131,0.07566209137439728,-0.10763341933488846
1741258117.3350716,-0.0011569034541025758,-0.0002967526379507035,-0.00041742651956155896,0.2044275403022766,-9.403517723083496,2.6177942752838135,-0.002312545897439122,-0.048883628100156784,-0.018268190324306488
1741258117.4070547,-0.0011569034541025758,-0.0002967526379507035,-0.00041742651956155896,0.19970156252384186,-9.393967628479004,2.596472978591919,-0.03184124082326889,0.01368772704154253,-0.01765981875360012
1741258117.4751623,-0.0011569034541025758,-0.0002967526379507035,-0.00041742651956155896,0.19733083248138428,-9.382085800170898,2.60145902633667,0.0583912618458271,-0.07742609828710556,-0.04820580035448074
1741258117.5486457,-0.0011569034541025758,-0.0002967526379507035,-0.00041742651956155896,0.18066655099391937,-9.375016212463379,2.6109695434570312,0.0882260650396347,0.014484359882771969,0.04216017946600914
1741258117.628449,-0.0011569034541025758,-0.0002967526379507035,-0.00041742651956155896,0.20206238329410553,-9.40113353729248,2.610738515853882,-0.0003843582235276699,0.07649201154708862,-0.07698799669742584
1741258117.7086575,-0.0011569034541025758,-0.0002967526379507035,-0.00041742651956155896,0.20680686831474304,-9.389241218566895,2.6250810623168945,-0.031527094542980194,0.014251728542149067,-0.016956694424152374
1741258117.8176162,-0.0011569034541025758,-0.0002967526379507035,-0.00041742651956155896,0.19969294965267181,-9.377331733703613,2.6108927726745605,-0.03085007704794407,0.04538441821932793,-0.016544338315725327
1741258117.8908305,-0.0011569034541025758,-0.0002967526379507035,-0.00041742651956155896,0.19018085300922394,-9.403504371643066,2.589109182357788,-0.002290471224114299,-0.018533727154135704,0.012425694614648819
1741258117.9554243,-0.0011569034541025758,-0.0002967526379507035,-0.00041742651956155896,0.2211163341999054,-9.408185958862305,2.5965499877929688,-0.09315560013055801,0.012585501186549664,0.10265760123729706
1741258118.0220299,-0.0011569034541025758,-0.0002967526379507035,-0.00041742651956155896,0.194942906498909,-9.396395683288574,2.6085920333862305,0.1492762565612793,0.015448437072336674,0.01194662507623434
1741258118.0946023,-0.0011569034541025758,-0.0002967526379507035,-0.00041742651956155896,0.20682278275489807,-9.40585708618164,2.60107421875,-0.061959754675626755,-0.04821014031767845,-0.04789147526025772
1741258118.1583529,-0.0011569034541025758,-0.0002967526379507035,-0.00041742651956155896,0.19250938296318054,-9.389326095581055,2.644101858139038,-0.0917612761259079,-0.04712500050663948,-0.07755806297063828
1741258118.2290382,-0.0011569034541025758,-0.0002967526379507035,-0.00041742651956155896,0.20685461163520813,-9.403433799743652,2.5797531604766846,0.08847521990537643,-0.04697572439908981,-0.04832562431693077
1741258118.2950463,-0.0011569034541025758,-0.0002967526379507035,-0.00041742651956155896,0.20205506682395935,-9.398771286010742,2.620326042175293,-0.0929415300488472,-0.04752911627292633,0.011913890950381756
1741258118.3582525,-0.0011569034541025758,-0.0002967526379507035,-0.00041742651956155896,0.18303987383842468,-9.415452003479004,2.5963189601898193,-0.09076132625341415,-0.0159493125975132,-0.13774791359901428
1741258118.4262292,-0.0011569034541025758,-0.0002967526379507035,-0.00041742651956155896,0.19491969048976898,-9.394021034240723,2.6154937744140625,0.02670392580330372,-0.01698782853782177,0.10153266042470932
1741258118.4945347,-0.0011569034541025758,-0.0002967526379507035,-0.00041742651956155896,0.21873141825199127,-9.408204078674316,2.6013050079345703,-0.00045858652447350323,0.016418728977441788,-0.10790422558784485
1741258118.5616875,-0.0011569034541025758,-0.0002967526379507035,-0.00041742651956155896,0.18063472211360931,-9.379753112792969,2.6055984497070312,0.029646532610058784,0.07600681483745575,-0.07754749059677124
1741258118.6285746,-0.0011569034541025758,-0.0002967526379507035,-0.00041742651956155896,0.2139439582824707,-9.386788368225098,2.60567569732666,0.028044240549206734,0.04399249702692032,0.07228381186723709
1741258118.703004,-0.0011569034541025758,-0.0002967526379507035,-0.00041742651956155896,0.19968348741531372,-9.396378517150879,2.610738515853882,-0.09177371859550476,0.014116637408733368,0.012217184528708458
1741258118.7668607,-0.0011569034541025758,-0.0002967526379507035,-0.00041742651956155896,0.2067832052707672,-9.401137351989746,2.6246960163116455,-0.21103353798389435,0.16799210011959076,-0.016351468861103058
1741258118.8357394,-0.0011569034541025758,-0.0002967526379507035,-0.00041742651956155896,0.18303987383842468,-9.398781776428223,2.5963189601898193,0.027909593656659126,0.014042245224118233,0.04198892414569855
1741258118.9027379,-0.0011569034541025758,-0.0002967526379507035,-0.00041742651956155896,0.18778519332408905,-9.379716873168945,2.5985424518585205,-0.09106238931417465,-0.04754852503538132,-0.13828638195991516
1741258118.9734778,-0.0011569034541025758,-0.0002967526379507035,-0.00041742651956155896,0.19491411745548248,-9.3987455368042,2.6008429527282715,0.08660008758306503,-0.14176297187805176,0.040479257702827454
1741258119.06265,-0.0011569034541025758,-0.0002967526379507035,-0.00041742651956155896,0.20920899510383606,-9.403446197509766,2.591486692428589,0.08862155675888062,-0.04674173519015312,-0.07927544414997101
1741258119.144165,-0.0011569034541025758,-0.0002967526379507035,-0.00041742651956155896,0.17347311973571777,-9.39175033569336,2.6367380619049072,-0.06261066347360611,0.07584856450557709,0.07166436314582825
1741258119.2203462,-0.0011569034541025758,-0.0002967526379507035,-0.00041742651956155896,0.1949278861284256,-9.408258438110352,2.59378719329834,0.027153003960847855,-0.047891926020383835,0.010545565746724606
1741258119.2905054,-0.0011569034541025758,-0.0002967526379507035,-0.00041742651956155896,0.2044426053762436,-9.389206886291504,2.6059064865112305,-0.030404867604374886,0.1701582372188568,-0.0180875975638628
1741258119.3600545,-0.0011569034541025758,-0.0002967526379507035,-0.00041742651956155896,0.19966067373752594,-9.394021987915039,2.624927043914795,-0.23992358148097992,0.1694500595331192,-0.0773908868432045
1741258119.4305685,-0.0011569034541025758,-0.0002967526379507035,-0.00041742651956155896,0.2092098444700241,-9.372526168823242,2.606060743331909,-0.03257030248641968,-0.13932399451732635,-0.01972034014761448
1741258119.5066457,-0.0011569034541025758,-0.0002967526379507035,-0.00041742651956155896,0.18540197610855103,-9.413078308105469,2.605752468109131,0.05761740729212761,0.07527344673871994,0.1309073269367218
1741258119.5733438,-0.0011569034541025758,-0.0002967526379507035,-0.00041742651956155896,0.21393966674804688,-9.382040977478027,2.612884998321533,0.02700210176408291,-0.017216408625245094,0.10031647980213165
1741258119.6458654,-0.0011569034541025758,-0.0002967526379507035,-0.00041742651956155896,0.2115711122751236,-9.386786460876465,2.6009199619293213,-0.09262948483228683,-0.048158831894397736,0.010771098546683788
1741258119.7137547,-0.0011569034541025758,-0.0002967526379507035,-0.00041742651956155896,0.19965983927249908,-9.382080078125,2.610353708267212,-0.06236905977129936,-0.048059575259685516,-0.04933265224099159
1741258119.7838035,-0.0011569034541025758,-0.0002967526379507035,-0.00041742651956155896,0.21392589807510376,-9.393959045410156,2.619940757751465,-0.21283476054668427,-0.017430780455470085,-0.01878625527024269
1741258119.8520555,-0.0011569034541025758,-0.0002967526379507035,-0.00041742651956155896,0.20202669501304626,-9.429717063903809,2.619863748550415,-0.06322228908538818,0.013040739111602306,0.07061177492141724
1741258119.9751997,-0.0011569034541025758,-0.0002967526379507035,-0.00041742651956155896,0.20207831263542175,-9.393935203552246,2.5867319107055664,-0.001710838987492025,0.014994002878665924,-0.020113814622163773
1741258120.0486908,-0.0011569034541025758,-0.0002967526379507035,-0.00041742651956155896,0.2020653784275055,-9.393983840942383,2.608360767364502,0.2099708467721939,0.11028672754764557,-0.020391179248690605
1741258120.1726763,-0.0011569034541025758,-0.0002967526379507035,-0.00041742651956155896,0.21631985902786255,-9.396309852600098,2.6080527305603027,-0.18382567167282104,0.013034340925514698,0.16082195937633514
1741258120.237835,-0.0011569034541025758,-0.0002967526379507035,-0.00041742651956155896,0.2091844528913498,-9.384415626525879,2.6032209396362305,-0.06144236773252487,-0.10910094529390335,-0.0502166748046875
1741258120.304205,-0.0011569034541025758,-0.0002967526379507035,-0.00041742651956155896,0.21158958971500397,-9.403444290161133,2.5939412117004395,0.027542514726519585,-0.016119563952088356,0.1297309249639511
1741258120.376559,-0.0011569034541025758,-0.0002967526379507035,-0.00041742651956155896,0.1900724321603775,-9.403674125671387,2.674701690673828,-0.12124146521091461,-0.1077200248837471,-0.10986858606338501
1741258120.4416733,-0.0011569034541025758,-0.0002967526379507035,-0.00041742651956155896,0.22111979126930237,-9.398608207702637,2.5747668743133545,0.05993153527379036,-0.04574640095233917,-0.08057491481304169
1741258120.5170684,-0.0011569034541025758,-0.0002967526379507035,-0.00041742651956155896,0.20910143852233887,-9.377391815185547,2.6649606227874756,-0.06318354606628418,-0.07926226407289505,0.06953359395265579
1741258120.5882723,-0.0011569034541025758,-0.0002967526379507035,-0.00041742651956155896,0.21393923461437225,-9.374878883361816,2.6055984497070312,0.05642763525247574,-0.20178630948066711,0.0088746203109622
1741258120.6648517,-0.0011569034541025758,-0.0002967526379507035,-0.00041742651956155896,0.16879059374332428,-9.410698890686035,2.577298402786255,0.027140794321894646,-0.07734190672636032,0.03999346122145653
1741258120.7306015,-0.0011569034541025758,-0.0002967526379507035,-0.00041742651956155896,0.24003738164901733,-9.374881744384766,2.6529955863952637,0.08488676697015762,-0.2030843198299408,0.09916061908006668
1741258120.8063211,-0.0011569034541025758,-0.0002967526379507035,-0.00041742651956155896,0.16875791549682617,-9.403556823730469,2.5840461254119873,0.14748717844486237,-0.10924465954303741,0.039132751524448395
1741258120.8901339,-0.0011569034541025758,-0.0002967526379507035,-0.00041742651956155896,0.2115771323442459,-9.40344524383545,2.5961649417877197,-0.18075379729270935,0.169325053691864,0.041700031608343124
1741258120.9538257,-0.0011569034541025758,-0.0002967526379507035,-0.00041742651956155896,0.21869875490665436,-9.398682594299316,2.6080527305603027,0.08739356696605682,-0.07766380161046982,0.06911265850067139
1741258121.027265,-0.0011569034541025758,-0.0002967526379507035,-0.00041742651956155896,0.1996181309223175,-9.398765563964844,2.6242339611053467,-0.03247230127453804,-0.017832767218351364,0.039914630353450775
1741258121.1020656,-0.0011569034541025758,-0.0002967526379507035,-0.00041742651956155896,0.2162979245185852,-9.405831336975098,2.6101224422454834,-0.05973131209611893,0.13878697156906128,-0.07909736037254333
1741258121.178412,-0.0011569034541025758,-0.0002967526379507035,-0.00041742651956155896,0.2091522067785263,-9.41301155090332,2.617255210876465,-0.03044905699789524,0.04550907760858536,-0.04986421391367912
1741258121.2444715,-0.0011569034541025758,-0.0002967526379507035,-0.00041742651956155896,0.2115478813648224,-9.396318435668945,2.6078219413757324,-0.00046253521577455103,-0.04626188427209854,-0.14041674137115479
1741258121.3127234,-0.0011569034541025758,-0.0002967526379507035,-0.00041742651956155896,0.19489003717899323,-9.370208740234375,2.619863748550415,0.08895949274301529,0.20076100528240204,0.09995956718921661
1741258121.378059,-0.0011256687575951219,-0.00030346278799697757,-0.00042044863221235573,0.18290822207927704,-9.382291793823242,2.6888132095336914,-0.273701548576355,-0.10975897312164307,-0.02017984166741371
1741258121.4494743,-0.0012178418692201376,-0.0003134785802103579,-0.0004299198044463992,0.24015185236930847,-9.400897026062012,2.562648057937622,0.29907548427581787,0.015690285712480545,0.008183403871953487
1741258121.515727,-0.0011360646458342671,-0.00028895895229652524,-0.0004216840607114136,0.1805831342935562,-9.384576797485352,2.63873028755188,-0.0633314922451973,-0.140580952167511,-0.02119099535048008
1741258121.6387713,-0.001185826607979834,-0.00026248901849612594,-0.0004159825621172786,0.20684516429901123,-9.401049613952637,2.579598903656006,0.11791177093982697,-0.07669419050216675,0.008446522988379002
1741258121.7083545,-0.0012005828320980072,-0.00023706814681645483,-0.000401384400902316,0.22103291749954224,-9.374883651733398,2.6243109703063965,-0.09345424175262451,-0.0796467587351799,0.009216969832777977
1741258121.7683723,-0.0014110669726505876,-0.00021180413023103029,-0.0004307594208512455,0.1901395618915558,-9.389252662658691,2.610276699066162,-0.0012892448576167226,0.13854822516441345,0.04001155123114586
1741258121.8389466,-0.002109684981405735,-0.00021063865278847516,-0.000707026629243046,0.20436258614063263,-9.384492874145508,2.6385762691497803,0.08438622951507568,-0.111723892390728,0.21823549270629883
1741258121.911234,-0.0021918758284300566,-0.00019387694192118943,-0.0007136492058634758,0.19965600967407227,-9.403478622436523,2.5981574058532715,-0.002009066054597497,0.04475248232483864,0.009510748088359833
1741258121.9861417,-0.001480407896451652,-0.00019543166854418814,-0.0006061317399144173,0.19726502895355225,-9.405887603759766,2.607667922973633,-0.093921959400177,-0.04916144162416458,0.0693482831120491
1741258122.0577536,-0.0013743828749284148,-0.00019634277850855142,-0.0005443169502541423,0.19962802529335022,-9.391645431518555,2.6316747665405273,0.0018494304968044162,0.20238235592842102,-0.1695554554462433
1741258122.127051,-0.0012433051597326994,-0.00020249055523891002,-0.0005139368586242199,0.19013309478759766,-9.384481430053711,2.6077446937561035,0.05868703871965408,0.04560920223593712,-0.02070089429616928
1741258122.2022579,-0.0010620809625834227,-0.00020279658201616257,-0.0004672109498642385,0.20677420496940613,-9.40584659576416,2.6051363945007324,-0.002462843433022499,0.013054370880126953,0.009328844957053661
1741258122.2775314,-0.0009425467578694224,-0.00021727655257564038,-0.00043612698209472,0.19492271542549133,-9.391569137573242,2.586423873901367,-0.061809662729501724,0.1994430422782898,0.10053227841854095
1741258122.3588462,-0.0008619317086413503,-0.00019670804613269866,-0.00040003645699471235,0.2162919044494629,-9.386789321899414,2.614877700805664,0.11753825843334198,0.014072699472308159,0.06885341554880142
1741258122.445458,-0.0008287974633276463,-0.0001720557629596442,-0.0003725056303665042,0.19728654623031616,-9.408252716064453,2.598311424255371,-0.09505388885736465,-0.20300573110580444,0.03839591518044472
1741258122.5124757,-0.0008076726226136088,-0.00015484380128327757,-0.00034765401505865157,0.19248919188976288,-9.410694122314453,2.6219334602355957,-0.12341802567243576,-0.01792856678366661,0.03961994871497154
1741258122.6049275,-0.0007896444294601679,-0.00013989444414619356,-0.000325166794937104,0.19484227895736694,-9.405954360961914,2.6384994983673096,-0.06266628205776215,0.10503905266523361,0.1000322476029396
1741258122.6905868,-0.0007734609534963965,-0.0001264405727852136,-0.0003048122744075954,0.1853477954864502,-9.389284133911133,2.621856212615967,0.11677015572786331,-0.01800285093486309,0.09832412004470825
1741258122.7931778,-0.0007588284788653255,-0.00011427175195422024,-0.0002863873669411987,0.19489862024784088,-9.3701753616333,2.6054444313049316,-0.030750032514333725,-0.015554431825876236,-0.11079127341508865
1741258122.8851826,-0.0007455851882696152,-0.00010325767652830109,-0.00026970900944434106,0.1972508579492569,-9.398736000061035,2.6074366569519043,-0.1228475570678711,0.07432512938976288,0.03930896520614624
1741258122.95465,-0.0007335975533351302,-9.328781015938148e-05,-0.00025461165932938457,0.2091522067785263,-9.379673957824707,2.617255210876465,0.027555571869015694,-0.047309137880802155,0.008076312020421028
1741258123.0216823,-0.000722746248356998,-8.426302520092577e-05,-0.00024094543186947703,0.2234647125005722,-9.396234512329102,2.5863466262817383,-0.030581625178456306,-0.015392501838505268,-0.11137787252664566
1741258123.0950365,-0.0007129235891625285,-7.609374006278813e-05,-0.00022857467411085963,0.17822618782520294,-9.384521484375,2.609968662261963,-0.030476117506623268,0.10693977773189545,-0.020707489922642708
1741258123.162113,-0.0007040320197120309,-6.869884964544326e-05,-0.00021737656788900495,0.16398507356643677,-9.40835952758789,2.5959339141845703,-0.0934307873249054,0.013392777182161808,0.12892137467861176
1741258123.2319417,-0.0006959832971915603,-6.200493953656405e-05,-0.0002072399656753987,0.22100408375263214,-9.393970489501953,2.643254518508911,-0.06231561675667763,0.04419428110122681,0.03907568380236626
1741258123.3003166,-0.0006886975606903434,-5.594556569121778e-05,-0.000198064255528152,0.18300031125545502,-9.38447093963623,2.5932483673095703,0.030090205371379852,0.04570674151182175,-0.14137724041938782
1741258123.370303,-0.0006821025162935257,-5.04605814057868e-05,-0.00018975832790601999,0.21151691675186157,-9.401092529296875,2.6170241832733154,0.05876896157860756,-0.17067815363407135,-0.17201510071754456
1741258123.4418144,-0.0006761325057595968,-4.5495522499550134e-05,-0.000182239746209234,0.20437894761562347,-9.401127815246582,2.621856212615967,0.08952703326940536,0.04629240930080414,-0.0812457799911499
1741258123.514779,-0.0006707285065203905,-4.1001123463502154e-05,-0.00017543387366458774,0.19963878393173218,-9.398714065551758,2.600303888320923,-0.03083743341267109,0.07591310888528824,-0.05082616209983826
1741258123.5921068,-0.0006658367346972227,-3.693276448757388e-05,-0.0001692731457296759,0.2138824760913849,-9.384445190429688,2.631366729736328,0.05734751746058464,0.13733144104480743,0.1289798468351364
1741258123.6619985,-0.0006614087615162134,-3.325006036902778e-05,-0.00016369641525670886,0.1996603012084961,-9.389175415039062,2.5909476280212402,-0.12098726630210876,0.04583195224404335,-0.11079607158899307
1741258123.731406,-0.0006574004655703902,-2.991645123984199e-05,-0.00015864832676015794,0.1948474645614624,-9.379714012145996,2.619170665740967,0.11625470221042633,-0.08004205673933029,0.06709254533052444
1741258123.8048854,-0.0006537720328196883,-2.68988424068084e-05,-0.0001540787488920614,0.20434196293354034,-9.382097244262695,2.6358134746551514,0.02648828737437725,0.012506360188126564,0.06772004812955856
1741258123.875887,-0.0006504877237603068,-2.4167280571418814e-05,-0.0001499423524364829,0.19489650428295135,-9.384437561035156,2.595702648162842,0.02742956578731537,0.014132538810372353,0.03802891820669174
1741258123.947312,-0.0006475145928561687,-2.1694651877623983e-05,-0.00014619804278481752,0.19964909553527832,-9.39161205291748,2.6150317192077637,-0.03219691291451454,-0.015795519575476646,0.007478703744709492
1741258124.0242212,-0.0006448234198614955,-1.9456410882412456e-05,-0.00014280866889748722,0.2234143763780594,-9.384378433227539,2.6146464347839355,0.14802655577659607,0.045383431017398834,0.0072746919468045235
1741258124.096738,-0.0006423871964216232,-1.743034226819873e-05,-0.00013974058674648404,0.1972779631614685,-9.384407043457031,2.586038589477539,0.14891685545444489,0.045570939779281616,-0.08246453106403351
1741258124.1701937,-0.0006401820573955774,-1.5596329831168987e-05,-0.000136963339173235,0.19964781403541565,-9.396319389343262,2.5931715965270996,0.08710156381130219,0.012988473288714886,0.0677061527967453
1741258124.2559826,-0.000638185883872211,-1.393616730638314e-05,-0.00013444936485029757,0.22581951320171356,-9.377213478088379,2.605367660522461,0.08941268920898438,0.015662511810660362,-0.08165020495653152
1741258124.3324804,-0.0006363790016621351,-1.243337828782387e-05,-0.00013217367813922465,0.1948917657136917,-9.401104927062988,2.595625877380371,0.1171225756406784,-0.07916411012411118,0.03764547407627106
1741258124.4042244,-0.0006347432499751449,-1.1073042514908593e-05,-0.00013011372357141227,0.19963835179805756,-9.405840873718262,2.593017101287842,-0.03330915793776512,-0.018960895016789436,0.06874779611825943
1741258124.4727044,-0.0006332626799121499,-9.841657629294787e-06,-0.00012824904115404934,0.20913371443748474,-9.389209747314453,2.6242339611053467,0.05804655700922012,-0.016335852444171906,-0.021642664447426796
1741258124.5510063,-0.0006319223903119564,-8.726999112695921e-06,-0.00012656110629905015,0.2020103633403778,-9.393965721130371,2.609891414642334,0.17640870809555054,0.0749361664056778,0.1882525533437729
1741258124.6192698,-0.0006307092262431979,-7.71800296206493e-06,-0.0001250331843039021,0.19484831392765045,-9.3964204788208,2.633744239807129,0.028689119964838028,-0.016436120495200157,-0.08105657994747162
1741258124.684153,-0.0006296110805124044,-6.804652912251186e-06,-0.00012365009752102196,0.19250985980033875,-9.38206672668457,2.598003387451172,-0.15399634838104248,-0.08076641708612442,0.039586011320352554
1741258124.771329,-0.0006286168936640024,-5.977881755825365e-06,-0.0001223981089424342,0.21392077207565308,-9.39625358581543,2.5858845710754395,0.02498391829431057,-0.020093388855457306,0.15901537239551544
1741258124.8456755,-0.0006277170032262802,-5.2294817578513175e-06,-0.0001212648130604066,0.20199617743492126,-9.405866622924805,2.6096603870391846,-0.06287737190723419,0.01244117971509695,-0.020247967913746834
1741258124.9162657,-0.0006269024452194571,-4.552025529847015e-06,-0.0001202389394165948,0.19486422836780548,-9.401129722595215,2.6097376346588135,0.02806723117828369,0.07506506145000458,0.00971764512360096
1741258124.9875572,-0.0006261651869863272,-3.9387878132401966e-06,-0.00011931030894629657,0.20912815630435944,-9.386789321899414,2.6095833778381348,-0.09460899233818054,0.04192550852894783,0.12973317503929138
1741258125.0586042,-0.0006254976615309715,-3.383680905244546e-06,-0.00011846971028717235,0.20675569772720337,-9.396331787109375,2.6121151447296143,0.027571609243750572,0.07496578246355057,0.00956805795431137
1741258125.1324506,-0.0006248934660106897,-2.88119372271467e-06,-0.00011770879791583866,0.1805982142686844,-9.391631126403809,2.6001498699188232,-0.0907122790813446,0.13721923530101776,-0.10937855392694473
1741258125.2052257,-0.0006243465468287468,-2.4263388240797212e-06,-0.00011702000483637676,0.21390143036842346,-9.396293640136719,2.604982376098633,-0.032011356204748154,0.044433657079935074,-0.05020507797598839
1741258125.2751505,-0.0006238515488803387,-2.0146012502664234e-06,-0.00011639651347650215,0.2138863503932953,-9.41774845123291,2.616870164871216,-0.03317631036043167,0.0745527371764183,0.06989812105894089
1741258125.3538156,-0.000623403349891305,-1.6418935047113337e-06,-0.00011583212472032756,0.17823868989944458,-9.403504371643066,2.581052303314209,0.059336502104997635,0.04450170323252678,-0.08039005845785141
1741258125.4249148,-0.0006229977589100599,-1.3045157629676396e-06,-0.00011532122880453244,0.19962158799171448,-9.405858039855957,2.602450370788574,-0.18226748704910278,0.04309997707605362,-0.019289717078208923
1741258125.498047,-0.000622630468569696,-9.991192655434133e-07,-0.00011485876893857494,0.19962674379348755,-9.39397144317627,2.609814405441284,0.17932875454425812,0.015111870132386684,-0.05105045437812805
1741258125.5801294,-0.00062229810282588,-7.226722118502948e-07,-0.0001144401467172429,0.21392594277858734,-9.37007999420166,2.5932483673095703,0.05738446116447449,-0.016836022958159447,0.03915971517562866
1741258125.6524103,-0.0006219971692189574,-4.72430315312522e-07,-0.000114061200292781,0.20913158357143402,-9.396328926086426,2.614492416381836,0.08785861730575562,-0.016881372779607773,0.008957822807133198
1741258125.7231643,-0.0006217248155735433,-2.459096322127152e-07,-0.00011371818254701793,0.21628330647945404,-9.38675594329834,2.602604866027832,0.028895966708660126,-0.047336019575595856,-0.1109643206000328
1741258125.8035727,-0.0006214783061295748,-4.086153637672396e-08,-0.00011340767377987504,0.19008581340312958,-9.403510093688965,2.6069750785827637,0.027831749990582466,-0.01806420274078846,-0.05084681510925293
1741258125.8853161,-0.0006212551379576325,1.4474940712716489e-07,-0.00011312660353723913,0.23292048275470734,-9.3652925491333,2.614492416381836,0.2079404890537262,-0.1089772954583168,-0.051892828196287155
1741258125.9591112,-0.0006210531573742628,3.1276573508876027e-07,-0.00011287217785138637,0.21152552962303162,-9.384390830993652,2.602604866027832,0.20837675034999847,0.10713905841112137,0.06941396743059158
1741258126.032133,-0.0006208702689036727,4.6485530447171186e-07,-0.00011264187196502462,0.19485649466514587,-9.382081031799316,2.6120378971099854,0.02531653270125389,-0.08037570863962173,0.09883850812911987
1741258126.110487,-0.0006207047263160348,6.025277912158344e-07,-0.00011243339395150542,0.2114695906639099,-9.382087707519531,2.642946243286133,0.05502273514866829,0.04324640333652496,0.1894085854291916
1741258126.1865485,-0.0006205548997968435,7.271499384842173e-07,-0.00011224467743886635,0.20436693727970123,-9.396317481994629,2.6046743392944336,0.029220566153526306,0.0754188597202301,-0.10987421125173569
1741258126.2664378,-0.0006204192759469151,8.399587159146904e-07,-0.00011207384523004293,0.21389926970005035,-9.38436222076416,2.595240592956543,0.08821093291044235,0.10603304207324982,0.010152459144592285
1741258126.3474035,-0.0006202964577823877,9.420740525456495e-07,-0.00011191921657882631,0.19961771368980408,-9.403510093688965,2.6169471740722656,-0.09397018700838089,0.10537277162075043,0.16082976758480072
1741258126.4618626,-0.000620185281150043,1.0345095233788015e-06,-0.00011177924170624465,0.20677076280117035,-9.40583324432373,2.6002273559570312,-0.03356839343905449,-0.17159193754196167,-0.05115785449743271
1741258126.5342042,-0.0006200846983119845,1.1181828085682355e-06,-0.00011165253090439364,0.20671096444129944,-9.396353721618652,2.62837290763855,-0.0348530188202858,-0.08093498647212982,0.06886019557714462
1741258126.6086974,-0.0006199936615303159,1.1939243904635077e-06,-0.00011153783998452127,0.21391303837299347,-9.403399467468262,2.5881848335266113,-0.24173744022846222,0.04492197930812836,-0.10919537395238876
1741258126.6726148,-0.0006199111230671406,1.262486193809309e-06,-0.00011143401206936687,0.1995587944984436,-9.394001007080078,2.632974147796631,-0.03384360671043396,0.042189184576272964,0.09984402358531952
1741258126.7494962,-0.0006198365008458495,1.3245488617030787e-06,-0.00011134003580082208,0.20201124250888824,-9.377266883850098,2.5977723598480225,0.05628135800361633,-0.017039470374584198,0.09919954836368561
1741258126.8113112,-0.0006197689799591899,1.3807283494315925e-06,-0.00011125495802843943,0.19717518985271454,-9.398770332336426,2.632897138595581,-0.1539316326379776,-0.04969416931271553,-0.050214000046253204
1741258126.8812683,-0.0006197078619152308,1.431582631994388e-06,-0.00011117794929305092,0.19723840057849884,-9.393975257873535,2.6096603870391846,0.05657406896352768,-0.07778652757406235,0.00872754491865635
1741258126.945247,-0.000619652564637363,1.4776160242035985e-06,-0.00011110824561910704,0.19720140099525452,-9.408281326293945,2.6236178874969482,-0.18548870086669922,-0.1111394390463829,0.03966065123677254
1741258127.0161486,-0.0006196023896336555,1.5192858882073779e-06,-0.00011104514123871922,0.1877056360244751,-9.384480476379395,2.611807107925415,0.05635066330432892,0.04487650841474533,0.09964907169342041
1741258127.0815346,-0.0006195571040734649,1.5570057030345197e-06,-0.00011098802497144789,0.20911137759685516,-9.37966251373291,2.619016647338867,0.02772209793329239,-0.016172973439097404,-0.02062397263944149
1741258127.149124,-0.00061951600946486,1.591149953128479e-06,-0.0001109363220166415,0.2138902246952057,-9.384376525878906,2.6023738384246826,0.05630498379468918,-0.10917931795120239,0.03848768398165703
1741258127.2233047,-0.0006194788729771972,1.6220575389525038e-06,-0.00011088951578130946,0.22340019047260284,-9.389135360717773,2.614415407180786,0.20589344203472137,-0.046297818422317505,0.12830038368701935
1741258127.2966335,-0.0006194452289491892,1.650035301281605e-06,-0.00011084714788012207,0.1686972826719284,-9.39404296875,2.597618341445923,-0.002079425845295191,-0.04605741426348686,-0.08066034317016602
1741258127.361435,-0.0006194147281348705,1.6753609770603362e-06,-0.0001108087963075377,0.21386484801769257,-9.377281188964844,2.6262264251708984,-0.03306180611252785,0.04562414065003395,0.07002759724855423
1741258127.424683,-0.0006193871377035975,1.6982860415737377e-06,-0.00011077408271376044,0.22106043994426727,-9.39860725402832,2.5835068225860596,0.05720412731170654,-0.10781975090503693,0.00874472688883543
1741258127.4971561,-0.0006193622248247266,1.719037868497253e-06,-0.00011074265785282478,0.22576619684696198,-9.39863395690918,2.6093521118164062,0.028486037626862526,0.0764797106385231,0.009947420097887516
1741258127.5697663,-0.0006193396402522922,1.737822572067671e-06,-0.00011071420885855332,0.20194198191165924,-9.386833190917969,2.6257643699645996,0.08758480846881866,-0.10974190384149551,-0.051220957189798355
1741258127.6421165,-0.0006193191511556506,1.7548265986988554e-06,-0.00011068845924455673,0.19727583229541779,-9.391526222229004,2.5762972831726074,0.02632451057434082,-0.04753457382321358,0.12928760051727295
1741258127.7143447,-0.0006193006411194801,1.7702188870316604e-06,-0.0001106651543523185,0.19719667732715607,-9.384467124938965,2.6235408782958984,0.11876651644706726,0.07691686600446701,0.009506676346063614
1741258127.7838945,-0.0006192838773131371,1.7841520048023085e-06,-0.00011064405407523736,0.18767766654491425,-9.405917167663574,2.6186318397521973,0.11668942123651505,-0.01773613691329956,0.09867292642593384
1741258127.8629563,-0.0006192687433212996,1.7967643088923069e-06,-0.00011062495468650013,0.20910963416099548,-9.389181137084961,2.6165621280670166,0.058059871196746826,0.015274292789399624,0.009368374943733215
1741258127.9523575,-0.000619255006313324,1.8081810821968247e-06,-0.00011060766701120883,0.21385584771633148,-9.398660659790039,2.6066670417785645,0.11690571904182434,-0.11009806394577026,-0.05152469873428345
1741258128.0269122,-0.0006192426662892103,1.8185156704930705e-06,-0.00011059201642638072,0.19010603427886963,-9.401126861572266,2.602450370788574,0.08613529056310654,0.01500541903078556,0.12894991040229797
1741258128.1037471,-0.0006192313740029931,1.8278706193086691e-06,-0.00011057785013690591,0.216275155544281,-9.405791282653809,2.597618341445923,-0.03051360324025154,0.07795899361371994,-0.10993175208568573
1741258128.1796103,-0.0006192211294546723,1.8363386971032014e-06,-0.00011056502989958972,0.19482983648777008,-9.40112590789795,2.6140308380126953,-0.035775069147348404,-0.2034563571214676,0.09852564334869385
1741258128.2701747,-0.000619211932644248,1.844004145823419e-06,-0.00011055341747123748,0.21383386850357056,-9.389198303222656,2.6354286670684814,-0.15279044210910797,0.014120095409452915,-0.019782068207859993
1741258128.3332057,-0.0006192036671563983,1.8509429082769202e-06,-0.0001105429109884426,0.19958502054214478,-9.396370887756348,2.623694896697998,-0.12371420115232468,-0.016443300992250443,0.0701005831360817
1741258128.397469,-0.0006191961001604795,1.8572239923742018e-06,-0.00011053340131184086,0.2114851176738739,-9.39868450164795,2.6116528511047363,-0.03008956089615822,0.0469232015311718,-0.13981731235980988
1741258128.4648538,-0.0006191892316564918,1.8629095848154975e-06,-0.00011052479385398328,0.19244320690631866,-9.396373748779297,2.616331100463867,-0.09296216815710068,-0.04801582172513008,0.00977568794041872
1741258128.5285668,-0.0006191830616444349,1.8680563016459928e-06,-0.00011051700130337849,0.21148812770843506,-9.393917083740234,2.6092753410339355,0.058231037110090256,0.04590753838419914,0.009581864811480045
1741258128.617,-0.0006191774737089872,1.8727150745689869e-06,-0.00011050994362449273,0.1972358524799347,-9.40107536315918,2.592632293701172,0.05642935633659363,-0.047438740730285645,0.06918737292289734
1741258128.6874213,-0.0006191723514348269,1.8769322878142702e-06,-0.00011050355533370748,0.21622438728809357,-9.393915176391602,2.6186318397521973,-0.09218445420265198,0.07612940669059753,-0.019981324672698975
1741258128.755264,-0.0006191678112372756,1.8807496644512867e-06,-0.00011049777822336182,0.21384336054325104,-9.391517639160156,2.6088900566101074,-0.004114235285669565,-0.04882757365703583,0.03892115503549576
1741258128.8218694,-0.0006191636202856898,1.884205289570673e-06,-0.00011049254680983722,0.19962933659553528,-9.39156723022461,2.6001498699188232,0.08770740032196045,0.01742195151746273,0.00908067636191845
1741258128.8978689,-0.0006191598949953914,1.8873332692237454e-06,-0.00011048781016143039,0.20432564616203308,-9.396352767944336,2.6258413791656494,-0.033266738057136536,-0.046682603657245636,-0.05070197582244873
1741258128.9742088,-0.0006191565189510584,1.89016475360404e-06,-0.00011048351734643802,0.2209882289171219,-9.393890380859375,2.6138768196105957,-0.0632798969745636,-0.01611805334687233,-0.02064470387995243
1741258129.0405273,-0.0006191533757373691,1.8927278233604738e-06,-0.00011047963926102966,0.20673376321792603,-9.393946647644043,2.614184856414795,-0.0025771057698875666,0.01626664400100708,-0.02047681249678135
1741258129.1100974,-0.0006191505817696452,1.8950479443446966e-06,-0.0001104761176975444,0.21385325491428375,-9.384395599365234,2.616331100463867,-0.06124833971261978,-0.044760871678590775,-0.20021173357963562
1741258129.1755273,-0.000619148020632565,1.8971481949847657e-06,-0.00011047294538002461,0.2138635814189911,-9.381988525390625,2.6043663024902344,-0.03116675093770027,0.07861900329589844,-0.1399751454591751
1741258129.251674,-0.0006191458087414503,1.8990492662851466e-06,-0.0001104700641008094,0.21624547243118286,-9.384357452392578,2.6019887924194336,0.05485936626791954,-0.047084711492061615,0.09872989356517792
1741258129.3206253,-0.0006191437132656574,1.9007701439477387e-06,-0.00011046745930798352,0.18296076357364655,-9.38444709777832,2.5901777744293213,0.11629904806613922,-0.01510211918503046,0.03848801180720329
1741258129.3859735,-0.0006191418506205082,1.9023278809982003e-06,-0.00011046510189771652,0.19959966838359833,-9.39632797241211,2.604520320892334,-0.21459902822971344,0.014995129778981209,0.039919815957546234
1741258129.4572384,-0.0006191401043906808,1.9037380525332992e-06,-0.00011046296276617795,0.19246385991573334,-9.401084899902344,2.5924010276794434,0.14727376401424408,0.07765026390552521,0.00891135260462761
1741258129.5190318,-0.000619138590991497,1.9050144146603998e-06,-0.0001104610346374102,0.22574296593666077,-9.391497611999512,2.6162538528442383,-0.003412983613088727,-0.07684888690710068,-0.08115094900131226
1741258129.6404212,-0.0006191371940076351,1.9061699276790023e-06,-0.00011045928113162518,0.19716612994670868,-9.41783332824707,2.6400299072265625,0.024262292310595512,-0.0469081774353981,0.12868545949459076
1741258129.7136223,-0.000619135913439095,1.9072157328992034e-06,-0.0001104577022488229,0.20435704290866852,-9.408199310302734,2.597233295440674,0.08598563820123672,0.015908200293779373,0.06866823881864548
1741258129.791917,-0.0006191348657011986,1.9081628579442622e-06,-0.0001104562688851729,0.20433896780014038,-9.40346622467041,2.611499071121216,-0.034535083919763565,-0.16955913603305817,-0.05199349671602249
1741258129.8653364,-0.0006191338179633021,1.9090198293270078e-06,-0.00011045496648875996,0.20909805595874786,-9.393913269042969,2.6066670417785645,0.027332836762070656,-0.014384625479578972,-0.08120181411504745
1741258129.9354641,-0.0006191328866407275,1.90979562830762e-06,-0.00011045379505958408,0.20911270380020142,-9.393872261047363,2.587491989135742,0.23633109033107758,0.077647365629673,0.0981827825307846
1741258130.0001273,-0.0006191320135258138,1.9104977582173888e-06,-0.00011045273276977241,0.2162308394908905,-9.405831336975098,2.6211631298065186,0.17675763368606567,0.04869451746344566,0.03797205910086632
1741258130.0721707,-0.0006191312568262219,1.911133495013928e-06,-0.00011045176506740972,0.2138678878545761,-9.396260261535645,2.597156286239624,-0.06366705894470215,-0.014725481159985065,-0.02128467708826065
1741258130.158655,-0.000619130558334291,1.911708977786475e-06,-0.00011045089922845364,0.19245654344558716,-9.401105880737305,2.6019887924194336,0.17574220895767212,-0.10667335987091064,0.03743746504187584
1741258130.226461,-0.0006191299762576818,1.91222966350324e-06,-0.00011045010614907369,0.20910407602787018,-9.393904685974121,2.6019115447998047,-0.004544854164123535,0.015385483391582966,0.09859850257635117
1741258130.299131,-0.0006191293941810727,1.912701236506109e-06,-0.0001104493931052275,0.2138485312461853,-9.379631042480469,2.6162538528442383,-0.0031038240995258093,0.07813598960638046,0.03909864276647568
1741258130.3667762,-0.0006191288121044636,1.913128016894916e-06,-0.00011044874554499984,0.20436178147792816,-9.389152526855469,2.5973103046417236,0.05704675614833832,-0.0441858135163784,-0.0520058274269104
1741258130.4339263,-0.0006191283464431763,1.913514324769494e-06,-0.0001104481634683907,0.20906493067741394,-9.408252716064453,2.632819890975952,-0.03423541039228439,-0.16906730830669403,-0.051996130496263504
1741258130.5005357,-0.0006191279971972108,1.913864025482326e-06,-0.00011044763232348487,0.20197470486164093,-9.379619598388672,2.5923242568969727,-0.03304421529173851,0.047878701239824295,-0.021254491060972214
1741258130.5654876,-0.0006191275315359235,1.9141807570122182e-06,-0.00011044715211028233,0.20673035085201263,-9.39155101776123,2.6092753410339355,-0.09268413484096527,0.04903987795114517,-0.0208412017673254
1741258130.6440938,-0.0006191272987052798,1.9144672478432767e-06,-0.0001104467228287831,0.20435704290866852,-9.396293640136719,2.597233295440674,0.05670032277703285,0.048417482525110245,0.06828819215297699
1741258130.7108471,-0.0006191269494593143,1.9147266812069574e-06,-0.00011044632992707193,0.190067321062088,-9.405901908874512,2.6139535903930664,-0.03302155062556267,0.04851716756820679,0.038613319396972656
1741258130.8502536,-0.0006191266002133489,1.9149615582136903e-06,-0.00011044597340514883,0.20433253049850464,-9.39869499206543,2.6089673042297363,-0.12239037454128265,0.0477437749505043,-0.05056903511285782
1741258130.920699,-0.0006191263673827052,1.9151739252265543e-06,-0.0001104456459870562,0.19479846954345703,-9.393974304199219,2.615945816040039,-0.12211055308580399,0.10933011770248413,-0.08007585257291794
1741258131.0007856,-0.0006191261345520616,1.9153662833559792e-06,-0.00011044535494875163,0.21620891988277435,-9.410590171813965,2.623232841491699,-0.06354158371686935,0.07835032045841217,0.03919515013694763
1741258131.0732312,-0.0006191259017214179,1.9155404515913688e-06,-0.00011044509301427752,0.1876768320798874,-9.403499603271484,2.604058027267456,0.02510485053062439,0.07652328163385391,0.15844430029392242
1741258131.1448767,-0.0006191257853060961,1.9156982489221264e-06,-0.00011044485290767625,0.2066718190908432,-9.408254623413086,2.6325886249542236,0.057595331221818924,-0.04535388574004173,-0.11212291568517685
1741258131.2172759,-0.0006191255524754524,1.9158408122166293e-06,-0.00011044464190490544,0.2019471675157547,-9.39393138885498,2.606435775756836,-0.0944853127002716,-0.04618598893284798,-0.021712491288781166
1741258131.2863271,-0.0006191254360601306,1.9159701878379565e-06,-0.00011044444545404986,0.1948246955871582,-9.410630226135254,2.6066670417785645,-0.003527989611029625,0.047614503651857376,0.008157683536410332
1741258131.358317,-0.0006191253196448088,1.9160870579071343e-06,-0.0001104442635551095,0.18764585256576538,-9.377382278442383,2.6399524211883545,-0.003461918793618679,-0.014287015423178673,-0.05243854969739914
1741258131.4334514,-0.0006191252032294869,1.9161927866662154e-06,-0.00011044410348404199,0.19720444083213806,-9.412973403930664,2.5945475101470947,0.08597318083047867,0.04573766514658928,0.06801808625459671
1741258131.5046873,-0.0006191250868141651,1.9162887383572524e-06,-0.0001104439579648897,0.19011981785297394,-9.451054573059082,2.568702459335327,0.30061331391334534,-0.010644222609698772,-0.3220001459121704
1741258131.5758586,-0.0006191249703988433,1.9163753677275963e-06,-0.00011044382699765265,0.2423814833164215,-9.365260124206543,2.623309850692749,-0.03432922437787056,0.3241610825061798,0.220828115940094
1741258131.6443307,-0.0006734718335792422,4.758412251248956e-05,-0.0001206566666951403,0.15668408572673798,-9.391829490661621,2.6684837341308594,-0.062010981142520905,0.14086385071277618,-0.10985681414604187
1741258131.7137163,-0.0006881466833874583,6.292654688877519e-06,-0.00013460461923386902,0.20905247330665588,-9.367773056030273,2.6350436210632324,-0.1537342518568039,0.04651815816760063,-0.0800234004855156
1741258131.784292,-0.0006751277251169086,3.923682379536331e-05,-0.0001288789208047092,0.1924229860305786,-9.410664558410645,2.6208550930023193,0.05692591145634651,-0.10650838166475296,-0.1716078519821167
1741258131.8611364,-0.0007116120541468263,0.00010813242988660932,-0.00014246908540371805,0.2139040231704712,-9.39382266998291,2.5686254501342773,0.14744769036769867,-0.01328968070447445,-0.11149754375219345
1741258131.92193,-0.0007589749293401837,0.00016411081014666706,-0.00015753456682432443,0.19477951526641846,-9.398795127868652,2.6423301696777344,0.0859064906835556,0.04717019945383072,0.03898653760552406
1741258132.0069065,-0.0008021038956940174,0.00029794074362143874,-0.00014808718697167933,0.21386270225048065,-9.401002883911133,2.589792490005493,0.08600576967000961,0.04639241471886635,0.00897261407226324
1741258132.0809064,-0.0007504549575969577,0.00033585989149287343,-0.00012828978651668876,0.18769189715385437,-9.396331787109375,2.592170000076294,0.024951301515102386,-0.04687569662928581,0.008722665719687939
1741258132.1469452,-0.000670037348754704,0.00029778311727568507,-0.00011503302812343463,0.21623514592647552,-9.396223068237305,2.587261199951172,0.05506392568349838,0.014308926649391651,0.038893695920705795
1741258132.2158022,0.0018363333074375987,0.0002710286062210798,6.523206684505567e-05,0.197172611951828,-9.37967586517334,2.6158690452575684,-0.03399030864238739,-0.01568516343832016,-0.08084145188331604
1741258132.2879007,0.004198793321847916,1.16080436782795e-05,0.00012796653027180582,0.19957342743873596,-9.393959999084473,2.6137993335723877,0.20391999185085297,-0.23138250410556793,0.03705202415585518
1741258132.3505924,0.001213878975249827,0.00014004831609781832,0.00014186509361024946,0.18765704333782196,-9.393996238708496,2.6158690452575684,-0.003696936648339033,0.0461914986371994,-0.05065081641077995
1741258132.4228404,0.001341465744189918,4.591909146256512e-06,5.7964127336163074e-05,0.194782093167305,-9.408296585083008,2.6326661109924316,-0.06375155597925186,0.04663332179188728,-0.05039428174495697
1741258132.5005069,0.0013052860740572214,0.00026097174850292504,0.0001777823199518025,0.20429079234600067,-9.398713111877441,2.622847557067871,-0.0045400881208479404,0.1374759078025818,0.06975451856851578
1741258132.5664752,0.0012779512908309698,0.00026943505508825183,0.00018642786017153412,0.13260777294635773,-9.40420913696289,2.8724923133850098,-0.481256902217865,0.2623606026172638,-0.2575305104255676
1741258132.6302454,0.0008303847862407565,0.00033676961902529,0.00019160158990416676,0.2590797543525696,-9.3770112991333,2.5755271911621094,-0.21386529505252838,-0.015569416806101799,-0.14008988440036774
1741258132.6948256,0.0007837573066353798,0.0003757928207051009,0.00020326103549450636,0.2114541381597519,-9.403457641601562,2.6208550930023193,0.2947097420692444,-0.04609838128089905,0.1276141256093979
1741258132.7563376,0.0010418627643957734,0.00043223818647675216,0.0003068005316890776,0.14707861840724945,-9.389573097229004,2.720404863357544,-0.21293491125106812,-0.015480590984225273,-0.23006302118301392
1741258132.8320012,0.0012539970921352506,0.0004421862249728292,0.000470478436909616,0.21861407160758972,-9.389071464538574,2.587261199951172,0.1741504967212677,-0.016977358609437943,0.12821105122566223
1741258132.8943949,0.0009465164039283991,0.00045617728028446436,0.000431592867244035,0.16617731750011444,-9.396538734436035,2.66326642036438,-0.033176276832818985,0.13839204609394073,-0.05006507411599159
1741258132.9584765,0.0006605102680623531,0.00048083311412483454,0.00031187807326205075,0.24245205521583557,-9.391334533691406,2.563793420791626,0.11306817829608917,0.014121279120445251,0.24858751893043518
1741258133.0313294,0.0005880676908418536,0.0005765489768236876,0.00025382457533851266,0.16617901623249054,-9.377495765686035,2.6657209396362305,0.055980365723371506,0.07658106833696365,0.009233771823346615
1741258133.09634,0.0007303885649889708,0.000612203381024301,0.00014502715202979743,0.2162480652332306,-9.400936126708984,2.565631628036499,0.05711238086223602,-0.015912996605038643,-0.1711895763874054
1741258133.1630602,0.00037712816265411675,0.0006295491475611925,9.883624443318695e-05,0.18524155020713806,-9.386898040771484,2.637113332748413,0.024758508428931236,0.04458322376012802,0.06914916634559631
1741258133.2332325,0.00028498456231318414,0.000657015829347074,5.201127351028845e-05,0.21628251671791077,-9.384270668029785,2.5613389015197754,0.055627062916755676,-0.0768897756934166,-0.051517318934202194
1741258133.292963,0.00026245779008604586,0.0006630853749811649,2.8653457775362767e-05,0.1781100481748581,-9.391704559326172,2.6444766521453857,-0.03391892462968826,0.10790368914604187,0.00977106299251318
1741258133.3551733,0.00023220029834192246,0.0006674871547147632,-2.8918625503138173e-06,0.2019243687391281,-9.374907493591309,2.62062406539917,0.05681146681308746,0.0774477869272232,-0.05072545260190964
1741258133.4268937,0.00017692359688226134,0.0006877279374748468,-2.1964577172184363e-05,0.21382957696914673,-9.38676643371582,2.615945816040039,0.02532167173922062,-0.046615373343229294,-0.021261848509311676
1741258133.4915876,2.5042763809324242e-05,0.0006980205653235316,-5.4134594392962754e-05,0.21620546281337738,-9.391526222229004,2.618323564529419,-0.12444767355918884,0.0457766018807888,-0.020182641223073006
1741258133.5778792,-9.155302541330457e-05,0.0007117309141904116,-0.0001218620891449973,0.19238729774951935,-9.391622543334961,2.6299805641174316,-0.03555520251393318,-0.0481642410159111,0.008930188603699207
1741258133.642715,-0.00015415433153975755,0.0007052457658573985,-0.00014206150081008673,0.2233748584985733,-9.403338432312012,2.584883451461792,0.05432317778468132,0.01378827914595604,0.09886272251605988
1741258133.7133765,-0.0003074549313168973,0.000718706869520247,-0.0001583409175509587,0.19239632785320282,-9.40113353729248,2.622847557067871,-0.006080922670662403,-0.07930536568164825,0.03863394260406494
1741258133.7884264,-0.0003453258832450956,0.0007477744948118925,-0.00022772744705434889,0.21382957696914673,-9.39391040802002,2.615945816040039,0.05310571566224098,-0.10978903621435165,0.09788807481527328
1741258133.8490531,-0.0003628358244895935,0.0007669231854379177,-0.0002649412490427494,0.2042800337076187,-9.38681411743164,2.627525806427002,0.11450470983982086,-0.04759734496474266,-0.02159172296524048
1741258133.91481,-0.00037663913099095225,0.0007833722047507763,-0.00029548603924922645,0.2114752233028412,-9.398661613464355,2.6042122840881348,0.05445783585309982,-0.20020677149295807,-0.08151275664567947
1741258133.9779675,-0.0003888802311848849,0.0007981521775946021,-0.00032274567638523877,0.19714035093784332,-9.386842727661133,2.6299033164978027,-0.005755618214607239,-0.0478365458548069,-0.050615645945072174
1741258134.044072,-0.00039992944221012294,0.000811517471447587,-0.00034737284295260906,0.20431919395923615,-9.401040077209473,2.5966172218322754,0.054391589015722275,0.0134720578789711,0.009448275901377201
1741258134.1187956,-0.00040992736467160285,0.000823614071123302,-0.0003696595085784793,0.20427830517292023,-9.382043838500977,2.6250712871551514,0.05288350209593773,0.07387908548116684,0.15927435457706451
1741258134.1994681,-0.00041897702612914145,0.000834563747048378,-0.0003898327995557338,0.19002777338027954,-9.393972396850586,2.6108827590942383,0.024210793897509575,-0.016797132790088654,-0.021113410592079163
1741258134.271097,-0.00042716882308013737,0.0008444755803793669,-0.0004080937069375068,0.21382872760295868,-9.405780792236328,2.601372241973877,-0.12356935441493988,0.20033229887485504,-0.07951942086219788
1741258134.336445,-0.0004345840716268867,0.0008534477092325687,-0.00042462360579520464,0.2209538072347641,-9.39150619506836,2.6181695461273193,0.17490550875663757,-0.0457281693816185,-0.05188272148370743
1741258134.4024625,-0.00044129640446044505,0.0008615694241598248,-0.0004395865835249424,0.20192265510559082,-9.40585708618164,2.6181695461273193,-0.06607839465141296,-0.07774963229894638,-0.05156226456165314
1741258134.4718707,-0.00044737246935255826,0.0008689212845638394,-0.0004531311569735408,0.19477392733097076,-9.39161205291748,2.6276798248291016,-0.06446941941976547,0.04696560278534889,-0.11100423336029053
1741258134.5351985,-0.00045287254033610225,0.0008755761664360762,-0.00046539181494154036,0.19957558810710907,-9.379630088806152,2.596848249435425,0.08410200476646423,-0.01521203201264143,0.008243354968726635
1741258134.5985627,-0.0004578512453008443,0.0008816001936793327,-0.00047649024054408073,0.18290139734745026,-9.393969535827637,2.5989177227020264,-0.034443244338035583,-0.015768446028232574,-0.17138950526714325
1741258134.6687796,-0.00046235803165473044,0.0008870532037690282,-0.0004865366208832711,0.20429036021232605,-9.405838012695312,2.615561008453369,-0.09785663336515427,-0.11075025051832199,0.008782759308815002
1741258134.7369,-0.0004664375737775117,0.000891989329829812,-0.0004956306656822562,0.19004325568675995,-9.393966674804688,2.6062817573547363,-0.006933312397450209,-0.07795129716396332,0.008836387656629086
1741258134.8073382,-0.00047013041330501437,0.0008964575245045125,-0.0005038626259192824,0.19241267442703247,-9.396336555480957,2.6061277389526367,-0.0065183984115719795,-0.04734627157449722,-0.02115321345627308
1741258134.8743267,-0.00047347319195978343,0.0009005022002384067,-0.0005113143706694245,0.20428133010864258,-9.396327018737793,2.6226935386657715,-0.035078078508377075,-0.04666675254702568,-0.1410420536994934
1741258134.9393404,-0.00047649911721237004,0.0009041634621098638,-0.000518059590831399,0.18526394665241241,-9.384471893310547,2.61563777923584,-0.1568567305803299,0.07569771260023117,0.06998573243618011
1741258135.0096035,-0.0004792381951119751,0.0009074776899069548,-0.0005241654580458999,0.20190243422985077,-9.401097297668457,2.6226935386657715,-0.06654741615056992,0.014348423108458519,0.009737682528793812
1741258135.0716875,-0.00048171760863624513,0.0009104777127504349,-0.0005296926246955991,0.19951151311397552,-9.39159870147705,2.6322038173675537,-0.03722887486219406,-0.10930394381284714,0.008477205410599709
1741258135.1442304,-0.00048396200872957706,0.0009131933329626918,-0.0005346958059817553,0.19955235719680786,-9.393926620483398,2.603749990463257,0.05654580891132355,0.07815741747617722,-0.11065828055143356
1741258135.2083766,-0.0004859936598222703,0.0009156515588983893,-0.0005392247112467885,0.1900019645690918,-9.401145935058594,2.627448797225952,0.11348587274551392,-0.0779460072517395,0.03832412511110306
1741258135.2715473,-0.0004878327308688313,0.0009178768377751112,-0.000543324276804924,0.1947976052761078,-9.389174461364746,2.601372241973877,0.08573434501886368,-0.014304887503385544,-0.08109203726053238
1741258135.337399,-0.000489497440867126,0.0009198910556733608,-0.0005470352480188012,0.1852518916130066,-9.40116024017334,2.625148057937622,-0.06398101896047592,0.17062939703464508,-0.019936081022024155
1741258135.4070737,-0.0004910043207928538,0.0009217143524438143,-0.0005503944121301174,0.20429466664791107,-9.398677825927734,2.608351230621338,-0.06613755971193314,-0.01604466885328293,0.00919688306748867
1741258135.4686906,-0.0004923684755340219,0.0009233648888766766,-0.000553435180336237,0.1995338797569275,-9.405841827392578,2.6107289791107178,-0.09626931697130203,0.01505454070866108,0.009581351652741432
1741258135.538427,-0.0004936031764373183,0.0009248588467016816,-0.000556187704205513,0.19480834901332855,-9.398693084716797,2.596694231033325,-0.03697672858834267,0.015416287817060947,0.09948913007974625
1741258135.5997543,-0.0004947209963575006,0.0009262113599106669,-0.0005586793413385749,0.18999551236629486,-9.393993377685547,2.6249172687530518,-0.03670566529035568,-0.01589045114815235,0.00943843461573124
1741258135.66048,-0.0004957327619194984,0.0009274354670196772,-0.0005609347717836499,0.2066567838191986,-9.374873161315918,2.6177845001220703,0.14415718615055084,0.04658884555101395,0.039107561111450195
1741258135.7229958,-0.0004966486012563109,0.0009285436244681478,-0.0005629763472825289,0.22094522416591644,-9.389090538024902,2.6058967113494873,-0.12644121050834656,0.13841265439987183,0.04061587154865265
1741258135.791699,-0.0004974775947630405,0.0009295467752963305,-0.0005648244405165315,0.20906493067741394,-9.393898963928223,2.6061277389526367,-0.12771154940128326,-0.01586354523897171,0.03994924575090408
1741258135.8537862,-0.0004982281243428588,0.0009304548148065805,-0.0005664973286911845,0.21618826687335968,-9.389076232910156,2.593777656555176,0.05215844884514809,-0.14055491983890533,-0.021467791870236397
1741258135.921654,-0.000498907407745719,0.0009312768233940005,-0.0005680116591975093,0.1995166838169098,-9.401078224182129,2.612875461578369,0.05180808901786804,-0.17149558663368225,0.00869754608720541
1741258135.9871755,-0.0004995223134756088,0.0009320208337157965,-0.0005693824496120214,0.19241958856582642,-9.391533851623535,2.5892534255981445,0.05113968998193741,-0.04767787456512451,0.12932966649532318
1741258136.051734,-0.0005000790115445852,0.0009326942963525653,-0.0005706233205273747,0.19952312111854553,-9.389180183410645,2.6154069900512695,-0.0050998469814658165,-0.04535021260380745,-0.16994525492191315
1741258136.1232803,-0.0005005828570574522,0.000933303963392973,-0.000571746495552361,0.21620933711528778,-9.377204895019531,2.6038272380828857,0.022968873381614685,-0.045313429087400436,0.0102804284542799
1741258136.1905608,-0.0005010389722883701,0.0009338558884337544,-0.0005727632669731975,0.19713261723518372,-9.408275604248047,2.6322038173675537,-0.186122864484787,-0.014485977590084076,-0.13898731768131256
1741258136.2525258,-0.0005014517810195684,0.0009343554265797138,-0.0005736836465075612,0.20428693294525146,-9.391536712646484,2.610651969909668,0.1415344625711441,-0.13912133872509003,0.03914479538798332
1741258136.3219228,-0.0005018255906179547,0.0009348075836896896,-0.0005745167145505548,0.2042856365442276,-9.410598754882812,2.6154837608337402,0.08429854363203049,0.20179383456707,0.041589364409446716
1741258136.3912697,-0.0005021638935431838,0.000935217016376555,-0.0005752708530053496,0.20188523828983307,-9.38442611694336,2.624840021133423,0.11246450990438461,0.014781813137233257,0.040707722306251526
1741258136.463869,-0.0005024700658395886,0.0009355874499306083,-0.0005759535124525428,0.1995398998260498,-9.403450965881348,2.605973720550537,0.022582709789276123,-0.046156857162714005,-0.018955688923597336
1741258136.5284562,-0.0005027472507208586,0.0009359229588881135,-0.000576571561396122,0.21618610620498657,-9.389117240905762,2.6107289791107178,0.08351688832044601,0.016329443082213402,-0.04884275794029236
1741258136.5922716,-0.0005029982421547174,0.0009362265700474381,-0.0005771308206021786,0.20189598202705383,-9.384419441223145,2.6201624870300293,0.08327842503786087,-0.07600651681423187,-0.13934996724128723
1741258136.6712782,-0.0005032253684476018,0.0009365014266222715,-0.0005776372272521257,0.20663227140903473,-9.408231735229492,2.6295182704925537,0.2039490044116974,0.10923216491937637,-0.048985909670591354
1741258136.7422361,-0.0005034309579059482,0.0009367502061650157,-0.0005780955543741584,0.1971455216407776,-9.401082992553711,2.610574722290039,0.11137315630912781,-0.04624233394861221,0.010437552817165852
1741258136.8079016,-0.0005036171060055494,0.000936975353397429,-0.0005785104585811496,0.20428864657878876,-9.401068687438965,2.6131067276000977,0.11280471086502075,0.047364942729473114,0.010911760851740837
1741258136.8810542,-0.000503785558976233,0.000937179196625948,-0.0005788860144093633,0.1899675577878952,-9.389236450195312,2.631741762161255,-0.009373161010444164,-0.10963933169841766,0.010483707301318645
1741258136.9482572,-0.0005039380630478263,0.0009373637149110436,-0.0005792259471490979,0.2066640853881836,-9.396284103393555,2.6081972122192383,-0.21575383841991425,0.10883989185094833,-0.13756246864795685
1741258137.0172968,-0.000504076131619513,0.0009375307708978653,-0.0005795337492600083,0.1995244175195694,-9.40107536315918,2.610574722290039,0.05351581424474716,0.1085667759180069,0.011259990744292736
1741258137.081266,-0.0005042011616751552,0.0009376819944009185,-0.0005798123311251402,0.20192912220954895,-9.396273612976074,2.594008445739746,0.023265939205884933,-0.10723713040351868,-0.10976608842611313
1741258137.149946,-0.0005043142009526491,0.000937818898819387,-0.0005800644867122173,0.20189988613128662,-9.382004737854004,2.605665683746338,0.08405565470457077,0.04638652876019478,-0.04937906563282013
1741258137.2173536,-0.0005044166464358568,0.0009379427647218108,-0.00058029277715832,0.19715498387813568,-9.422518730163574,2.6107289791107178,0.17298847436904907,-0.014337453991174698,0.009619885124266148
1741258137.2847204,-0.0005045093130320311,0.0009380548726767302,-0.0005804992979392409,0.20190590620040894,-9.403426170349121,2.6009106636047363,0.11447037011384964,-0.014330834150314331,-0.13948559761047363
1741258137.3575635,-0.0005045932484790683,0.0009381563868373632,-0.0005806863773614168,0.21619942784309387,-9.389086723327637,2.596385955810547,0.08221810311079025,-0.10717979073524475,-0.01995614543557167
1741258137.4310555,-0.0005046691512688994,0.0009382483549416065,-0.0005808556452393532,0.2019011676311493,-9.391517639160156,2.6008334159851074,0.14151513576507568,-0.046510595828294754,0.03988534212112427
1741258137.5102737,-0.0005047379527240992,0.000938331475481391,-0.0005810089642181993,0.19715197384357452,-9.401092529296875,2.6131067276000977,-0.06832268834114075,0.047330595552921295,0.0712730884552002
1741258137.5744002,-0.0005048001185059547,0.000938406796194613,-0.000581147731281817,0.19954551756381989,-9.372467041015625,2.5939314365386963,-0.03894089534878731,-0.1080034077167511,0.010400380939245224
1741258137.642876,-0.000504856463521719,0.0009384750155732036,-0.0005812732269987464,0.19476793706417084,-9.382030487060547,2.6057426929473877,0.11197669804096222,-0.10732883214950562,-0.02035263553261757
1741258137.7124622,-0.0005049074534326792,0.0009385367156937718,-0.0005813869647681713,0.19952139258384705,-9.405842781066895,2.61295223236084,-0.09819497168064117,0.07717404514551163,0.07136432826519012
1741258137.7797685,-0.0005049536703154445,0.0009385924786329269,-0.0005814898759126663,0.1876235157251358,-9.41063117980957,2.6080431938171387,-0.12526622414588928,0.17028743028640747,-0.07779800146818161
1741258137.8552172,-0.0005049954634159803,0.0009386431192979217,-0.0005815830081701279,0.2066512107849121,-9.408173561096191,2.6031336784362793,-0.09802611917257309,-0.016928793862462044,0.010953919030725956
1741258137.926373,-0.0005050332983955741,0.0009386888705193996,-0.0005816672928631306,0.2042761743068695,-9.396306037902832,2.6153297424316406,-0.12700974941253662,-0.0463535413146019,-0.04900656268000603
1741258137.9917817,-0.0005050675245001912,0.00093873031437397,-0.000581743661314249,0.2185482382774353,-9.372458457946777,2.6201624870300293,-0.006971695460379124,0.015575317665934563,0.0408957339823246
1741258138.0560856,-0.0005050984909757972,0.0009387678001075983,-0.0005818126956000924,0.20192953944206238,-9.398673057556152,2.6012954711914062,-0.03586948290467262,0.016783535480499268,-0.018957780674099922
1741258138.1234741,-0.0005051265470683575,0.0009388016769662499,-0.0005818752106279135,0.2161981612443924,-9.396242141723633,2.6012187004089355,-0.0977531224489212,0.0152213666588068,0.100728839635849
1741258138.192735,-0.0005051519256085157,0.0009388324106112123,-0.0005819319048896432,0.2042916715145111,-9.393919944763184,2.6107289791107178,-0.03739243000745773,-0.015329158864915371,0.07043449580669403
1741258138.2646239,-0.0005051749758422375,0.0009388602338731289,-0.000581983127631247,0.19236452877521515,-9.403488159179688,2.617476224899292,-0.035962771624326706,0.04612760245800018,-0.01911783032119274
1741258138.3354037,-0.0005051956977695227,0.0009388853795826435,-0.0005820294609293342,0.1923597753047943,-9.403486251831055,2.6173994541168213,0.11327002942562103,-0.07797558605670929,0.009790802374482155
1741258138.3974319,-0.0005052145570516586,0.0009389081969857216,-0.0005820714868605137,0.21377409994602203,-9.408161163330078,2.610189437866211,0.08443146198987961,0.07667046785354614,0.010463172569870949
1741258138.472432,-0.0005052316701039672,0.000938928802497685,-0.0005821094382554293,0.20190158486366272,-9.401061058044434,2.6081204414367676,-0.15364859998226166,0.10924364626407623,-0.1380337029695511
1741258138.5430553,-0.0005052470369264483,0.0009389475453644991,-0.00058214389719069,0.20665162801742554,-9.415335655212402,2.6104209423065186,0.05521491914987564,-0.04572960361838341,-0.10973579436540604
1741258138.6171908,-0.0005052610067650676,0.000938964425586164,-0.0005821750964969397,0.20902492105960846,-9.38677978515625,2.622462511062622,0.11510369926691055,-0.04477429389953613,-0.08007911592721939
1741258138.6806788,-0.0005052736960351467,0.0009389797924086452,-0.0005822032690048218,0.1995166838169098,-9.398696899414062,2.612875461578369,0.11310191452503204,0.015338233672082424,0.10030192881822586
1741258138.7429967,-0.0005052851047366858,0.0009389936458319426,-0.0005822287639603019,0.20664389431476593,-9.391525268554688,2.6127212047576904,-0.004169643856585026,0.13972482085227966,-0.07849901914596558
1741258138.812227,-0.0005052954657003284,0.000939006102271378,-0.0005822518141940236,0.1971399337053299,-9.379678726196289,2.622616767883301,-0.0664292424917221,-0.0759747177362442,-0.019580911844968796
1741258138.8833966,-0.0005053048953413963,0.0009390175109729171,-0.0005822727689519525,0.201841801404953,-9.401106834411621,2.636265993118286,-0.12619461119174957,0.1369478702545166,0.1016489565372467
1741258138.9537094,-0.0005053133936598897,0.0009390277555212379,-0.0005822917446494102,0.20902621746063232,-9.393912315368652,2.6176304817199707,-0.03612552955746651,0.07743790745735168,0.10024459660053253
1741258139.0231323,-0.0005053210770711303,0.000939037068746984,-0.0005823088577017188,0.20902279019355774,-9.39151668548584,2.6127212047576904,-0.09670926630496979,-0.015940550714731216,0.040003761649131775
1741258139.0848935,-0.0005053280619904399,0.0009390454506501555,-0.0005823243409395218,0.2042263001203537,-9.40345287322998,2.6242239475250244,-0.09534236043691635,-0.016518108546733856,-0.07973078638315201
1741258139.147418,-0.0005053343484178185,0.0009390531340613961,-0.0005823384271934628,0.204270601272583,-9.384361267089844,2.600679397583008,0.05492878705263138,-0.04597529023885727,-0.05047094449400902
1741258139.2206209,-0.0005053400527685881,0.000939059944357723,-0.000582351116463542,0.21140597760677338,-9.379586219787598,2.6055116653442383,-0.06629553437232971,0.01492138858884573,0.06999476253986359
1741258139.2978597,-0.0005053451750427485,0.0009390662889927626,-0.0005823626415804029,0.20664045214653015,-9.396273612976074,2.6078124046325684,-0.09570397436618805,-0.04674181342124939,0.01002709474414587
1741258139.363245,-0.0005053498316556215,0.0009390718769282103,-0.0005823730025440454,0.2280767410993576,-9.384283065795898,2.5985326766967773,0.0833742767572403,-0.04595685750246048,0.18910521268844604
1741258139.4424539,-0.0005053540226072073,0.0009390769992023706,-0.0005823824321851134,0.23989805579185486,-9.391464233398438,2.641021251678467,-0.03476151451468468,-0.015219392254948616,0.03987202048301697
1741258139.5062299,-0.0005053578643128276,0.0009390816558152437,-0.0005823909305036068,0.1923576444387436,-9.38679313659668,2.6076583862304688,0.08385714143514633,-0.2010391503572464,0.008157867006957531
1741258139.579363,-0.0005053613567724824,0.0009390858467668295,-0.0005823987303301692,0.22568324208259583,-9.374741554260254,2.591014862060547,-0.035156045109033585,-0.015059576369822025,0.009588658809661865
1741258139.6561034,-0.0005053644999861717,0.000939089572057128,-0.0005824057152494788,0.18282915651798248,-9.413066864013672,2.6292872428894043,0.055869195610284805,-0.04420390725135803,-0.05125080421566963
