timestamp,position_x,position_y,position_z,acc_x,acc_y,acc_z,gyro_x,gyro_y,gyro_z,mag_x,mag_y,mag_z
1745691297209,0.0,0.0,0.0,-0.29448682,0.90740246,10.500969,0.0,0.0,0.0,0.0,0.0,0.0
1745691297219,0.0,0.0,0.0,-0.34476504,0.90021986,10.314221,-0.11728613,0.0580322,0.076358154,-47.369003,-28.77,-45.397003
1745691297231,0.0,0.0,0.0,-0.2657564,0.89303726,10.146626,-0.11728613,0.0580322,0.076358154,-46.967003,-29.187002,-45.382004
1745691297241,0.0,0.0,0.0,-0.30645782,0.93134445,9.909601,-0.11728613,0.0580322,0.076358154,-46.274002,-30.866001,-44.600002
1745691297251,0.0,0.0,0.0,-0.37588966,0.93852705,9.737218,-0.11728613,0.0580322,0.076358154,-46.274002,-30.865002,-44.812
1745691297263,0.0,0.0,0.0,-0.45010993,0.92176765,9.696517,0.040317107,0.02321288,0.0030543262,-46.480003,-31.29,-44.386
1745691297274,0.0,0.0,0.0,-0.45010993,0.94331545,9.619903,-6.1086525E-4,0.01038471,0.002443461,-47.993004,-30.468002,-44.113003
1745691297284,0.0,0.0,0.0,-0.37349546,0.9624691,9.636662,-0.04337143,0.015882496,0.002443461,-47.077003,-29.929,-43.675003
1745691297295,0.0,0.0,0.0,-0.4237737,0.94092125,9.742006,-0.06291912,0.018936822,0.0018325958,-46.571003,-29.922,-43.664
1745691297306,0.0,0.0,0.0,-0.46926352,0.93134445,9.792285,-0.07880162,0.015271631,0.0067195175,-46.670002,-30.025002,-46.001003
1745691297316,0.0,0.0,0.0,-0.44532153,0.90021986,10.048465,-0.100792766,-0.004276057,0.015271631,-46.563004,-29.391,-46.007004
1745691297327,0.0,0.0,0.0,-0.35434186,0.8714894,10.113108,-0.08002335,-0.009773844,0.017715093,-46.569004,-30.025002,-45.362003
1745691297339,0.0,0.0,0.0,-0.34955344,0.8882488,10.16578,-0.039095376,0.015271631,0.007941248,-46.279003,-31.498001,-44.697002
1745691297349,0.0,0.0,0.0,-0.35194764,0.89782566,10.15381,-0.009162978,0.014049901,0.007330383,-46.578003,-30.975002,-44.924004
1745691297359,0.0,0.0,0.0,-0.30406362,0.89782566,10.072407,0.009773844,-0.0067195175,-0.0018325958,-47.078003,-30.138,-44.734
1745691297370,0.0,0.0,0.0,-0.4189853,0.8834604,9.947908,0.02076942,-0.015271631,-0.02443461,-46.780003,-31.081001,-46.201004
1745691297380,0.0,0.0,0.0,-0.4141969,0.90979666,9.849746,0.017715093,-0.019547688,-0.015882496,-47.391003,-31.196001,-44.939003
1745691297391,0.0,0.0,0.0,-0.35434186,0.91697925,9.734824,0.004886922,-0.017715093,-0.020158553,-46.976,-30.032001,-44.521004
1745691297401,0.0,0.0,0.0,-0.38067806,0.91219085,9.768343,-0.02076942,-0.01038471,-0.028710667,-46.066,-30.335001,-44.815002
1745691297412,0.0,0.0,0.0,-0.4429273,0.89064306,9.933543,-0.04153884,-0.01038471,-0.028710667,-46.072002,-30.968002,-44.594
1745691297424,0.0,0.0,0.0,-0.41180268,0.866701,10.084377,-0.04153884,-0.010995574,-0.021380283,-47.180004,-30.350002,-45.158
1745691297435,0.0,0.0,0.0,-0.36631286,0.89782566,10.158598,-0.021991149,-0.0012217305,-0.012217305,-46.783,-31.085001,-43.653004
1745691297445,0.0,0.0,0.0,-0.30406362,0.92895025,10.199299,0.002443461,0.01038471,-0.008552114,-47.586002,-30.565,-46.014004
1745691297456,0.0,0.0,0.0,-0.34237084,0.8834604,10.201694,0.021380283,-0.005497787,-0.010995574,-46.573,-30.550001,-46.522003
1745691297466,0.0,0.0,0.0,-0.35673606,0.8810662,10.079589,0.031154128,-0.014049901,-0.007941248,-47.179,-30.140001,-44.524002
1745691297477,0.0,0.0,0.0,-0.31364042,0.8882488,9.952697,0.03176499,-0.018936822,-0.0018325958,-46.373,-30.865002,-45.982002
1745691297488,0.0,0.0,0.0,-0.34237084,0.8714894,9.837775,0.027488936,-0.019547688,-0.002443461,-46.676003,-30.659002,-45.355003
1745691297499,0.0,0.0,0.0,-0.31124622,0.89064306,9.871294,0.018936822,0.0030543262,0.002443461,-47.184002,-30.667002,-44.623
1745691297509,0.0,0.0,0.0,-0.32800564,0.90979666,9.938332,0.020158553,0.016493361,0.0,-47.688004,-30.462002,-45.062
1745691297521,0.0,0.0,0.0,-0.34237084,0.878672,9.957485,0.02687807,0.031154128,0.005497787,-46.771004,-30.026001,-46.322002
1745691297532,0.0,0.0,0.0,-0.31364042,0.91458505,10.036493,0.032375857,0.03726278,0.0,-46.170002,-30.444002,-43.435
1745691297542,0.0,0.0,0.0,-0.49320555,0.8714894,10.060435,0.037873644,0.020158553,0.018936822,-46.286003,-32.028,-42.779003
1745691297552,0.0,0.0,0.0,-0.23223756,0.8810662,9.945514,0.035430185,0.032375857,0.015271631,-47.295002,-31.619001,-43.444
1745691297562,0.0,0.0,0.0,-0.16280572,0.9624691,9.916783,0.020158553,0.022602014,-0.014049901,-46.780003,-30.454002,-42.281002
1745691297572,0.0,0.0,0.0,-0.4405331,0.93373865,9.931149,0.007330383,-0.014049901,-0.030543262,-47.49,-30.882002,-44.414
1745691297582,0.0,0.0,0.0,-0.5363012,0.8714894,9.868899,-6.1086525E-4,-0.03176499,-0.02321288,-48.011,-32.68,-45.357002
1745691297592,0.0,0.0,0.0,-0.45250413,0.8738836,9.876082,-0.0036651916,-0.04153884,-0.015271631,-48.319004,-32.898003,-43.661003
1745691297602,0.0,0.0,0.0,-0.4189853,0.89303726,9.91439,0.0012217305,-0.040927973,-0.013439035,-46.066,-30.44,-45.557003
1745691297612,0.0,0.0,0.0,-0.34715924,0.91697925,9.964667,0.010995574,-0.026267206,-0.01160644,-46.576004,-30.659002,-44.503002
1745691297622,0.0,0.0,0.0,-0.35194764,0.8690952,9.9790325,0.026267206,-0.010995574,-0.010995574,-47.387,-30.984001,-46.216003
1745691297633,0.0,0.0,0.0,-0.35194764,0.8690952,9.995792,0.032375857,-0.01282817,-0.01160644,-47.393,-31.721,-46.737003
1745691297643,0.0,0.0,0.0,-0.36631286,0.89543146,9.916783,0.03176499,-0.030543262,-0.012217305,-47.407,-32.99,-44.277
1745691297653,0.0,0.0,0.0,-0.4309563,0.90979666,9.861717,0.030543262,-0.02565634,-0.007941248,-47.089,-31.717001,-46.517002
1745691297663,0.0,0.0,0.0,-0.4237737,0.91697925,9.77792,0.026267206,-0.030543262,-0.0018325958,-46.687004,-32.132,-47.140003
1745691297673,0.0,0.0,0.0,-0.35913026,0.9576807,9.737218,0.016493361,-0.02443461,6.1086525E-4,-45.979004,-32.229,-46.804
1745691297683,0.0,0.0,0.0,-0.4381389,0.9648633,9.725247,0.0018325958,-0.01160644,0.0018325958,-47.379,-30.244001,-47.288002
1745691297693,0.0,0.0,0.0,-0.49559975,0.9576807,9.718064,-0.02076942,0.013439035,0.007941248,-47.08,-30.454002,-44.836002
1745691297703,0.0,0.0,0.0,-0.45250413,0.9648633,9.818622,-0.03970624,0.049480084,0.02076942,-46.781002,-30.978,-44.61
1745691297714,0.0,0.0,0.0,-0.40940848,0.94331545,10.053253,-0.053145275,0.050701816,0.026267206,-46.781002,-31.186,-46.093002
1745691297726,0.0,0.0,0.0,-0.33997664,0.92176765,10.213664,-0.05497787,0.03481932,0.018325957,-45.656002,-29.907001,-45.768
1745691297738,0.0,0.0,0.0,-0.34715924,0.94810385,10.299856,-0.035430185,-0.02687807,-0.0018325958,-47.180004,-30.349,-45.371002
1745691297748,0.0,0.0,0.0,-0.3878607,0.90740246,10.263943,-0.015271631,-0.07269296,-0.017104227,-46.984,-30.980001,-44.72
1745691297759,0.0,0.0,0.0,-0.28491,0.92416185,10.204087,0.0067195175,-0.08124508,-0.022602014,-46.170002,-30.861002,-46.721
1745691297770,0.0,0.0,0.0,-0.21787235,0.92895025,10.113108,0.019547688,-0.050701816,-0.02321288,-46.171,-30.862001,-46.084003
1745691297782,0.0,0.0,0.0,-0.2753332,0.9600749,9.993398,0.020158553,-0.01038471,-0.02443461,-46.275,-31.180002,-45.976
1745691297792,0.0,0.0,0.0,-0.35194764,0.9504981,9.983821,0.01160644,0.014049901,-0.023823744,-46.685,-31.713001,-45.659
1745691297802,0.0,0.0,0.0,-0.35194764,0.9648633,10.007763,0.0061086523,0.03176499,-0.02443461,-47.599003,-31.728,-43.980003
1745691297812,0.0,0.0,0.0,-0.4285621,0.9600749,10.16578,0.012217305,0.020158553,-0.02321288,-46.483,-31.711002,-45.336002
1745691297822,0.0,0.0,0.0,-0.37828386,0.94092125,10.259154,0.02321288,-0.014049901,-0.028710667,-46.873,-30.133001,-46.216003
1745691297832,0.0,0.0,0.0,-0.36631286,0.92655605,10.261548,0.043982297,-0.035430185,-0.028710667,-47.485,-30.354002,-44.953003
1745691297844,0.0,0.0,0.0,-0.37349546,0.93373865,10.168175,0.06047566,-0.045814894,-0.03481932,-47.29,-31.091002,-44.088
1745691297854,0.0,0.0,0.0,-0.35913026,0.9840169,9.97185,0.07391469,-0.069027774,-0.032375857,-46.489002,-32.344,-45.221
1745691297864,0.0,0.0,0.0,-0.33039984,0.9720459,9.80665,0.07147124,-0.076358154,-0.0421497,-46.383003,-31.920002,-45.543003
1745691297875,0.0,0.0,0.0,-0.34715924,0.9696517,9.655815,0.06047566,-0.050701816,-0.0421497,-46.991,-32.136,-47.253002
1745691297885,0.0,0.0,0.0,-0.35673606,1.0390835,9.543288,0.03359759,-0.01282817,-0.042760566,-46.090004,-32.659,-42.341003
1745691297895,0.0,0.0,0.0,-0.39504328,1.0199299,9.593566,-0.0061086523,0.02321288,-0.031154128,-46.49,-32.241,-43.205
1745691297905,0.0,0.0,0.0,-0.36631286,0.9864111,9.8042555,-0.026267206,0.017715093,-0.031154128,-46.392002,-32.661003,-43.834003
1745691297916,0.0,0.0,0.0,-0.36870706,0.9744401,10.019734,-0.032986723,0.026267206,-0.034208454,-46.898003,-32.563,-43.210003
1745691297926,0.0,0.0,0.0,-0.37349546,0.9504981,10.168175,-0.019547688,0.016493361,-0.037873644,-47.184002,-30.772001,-44.834003
1745691297936,0.0,0.0,0.0,-0.33279404,0.92416185,10.261548,0.009162978,-0.02565634,-0.047036625,-46.277,-31.287,-45.125004
1745691297948,0.0,0.0,0.0,-0.4165911,0.8714894,10.228029,0.037873644,-0.054367006,-0.059253927,-46.182003,-32.128002,-45.536003
1745691297960,0.0,0.0,0.0,-0.48602295,0.89782566,10.031705,0.058643065,-0.05375614,-0.058643065,-46.989002,-31.612001,-45.349003
1745691297970,0.0,0.0,0.0,-0.4381389,0.92176765,9.890448,0.055588737,-0.01282817,-0.04886922,-47.401,-32.356003,-44.923
1745691297980,0.0,0.0,0.0,-0.36631286,0.91697925,9.888053,0.044593163,-0.01038471,-0.047647487,-46.489002,-32.344,-44.902
1745691297990,0.0,0.0,0.0,-0.36152446,0.8858546,9.976639,0.032375857,0.004886922,-0.05131268,-45.758003,-29.804,-44.709003
1745691298000,0.0,0.0,0.0,-0.33997664,0.89064306,10.139444,0.040927973,0.007330383,-0.05681047,-46.883003,-31.293001,-46.2
1745691298010,0.0,0.0,0.0,-0.25617957,0.92176765,10.189722,0.06719518,-0.01038471,-0.06352998,-46.370003,-30.443,-45.988003
1745691298020,0.0,0.0,0.0,-0.24660277,0.9720459,10.093954,0.0983493,-0.025045475,-0.07880162,-45.149002,-29.899002,-46.181004
1745691298030,0.0,0.0,0.0,-0.2681506,0.9648633,9.928755,0.12034045,-0.030543262,-0.089186326,-47.698,-31.727001,-45.575
1745691298040,0.0,0.0,0.0,-0.29927522,0.9768343,9.667787,0.12461651,-0.02321288,-0.09896017,-46.488003,-32.239002,-44.904003
1745691298050,0.0,0.0,0.0,-0.39743748,0.9768343,9.3661175,0.108123146,-0.007941248,-0.09773844,-45.372,-32.013,-44.670002
1745691298061,0.0,0.0,0.0,-0.46686932,0.9672575,9.23683,0.06780604,0.012217305,-0.09101892,-46.068,-30.651001,-45.342003
1745691298071,0.0,0.0,0.0,-0.45250413,0.9888053,9.320627,0.009162978,0.03481932,-0.07819075,-47.502003,-32.044003,-43.230003
1745691298082,0.0,0.0,0.0,-0.39983168,0.9840169,9.61272,-0.03176499,0.05375614,-0.06719518,-46.685,-31.505001,-43.963
1745691298093,0.0,0.0,0.0,-0.33997664,0.9648633,9.854534,-0.03970624,0.042760566,-0.06719518,-45.566,-31.066002,-45.325
1745691298103,0.0,0.0,0.0,-0.37110126,0.94570965,10.019734,-0.03176499,0.010995574,-0.069027774,-44.653004,-31.157001,-46.789
1745691298113,0.0,0.0,0.0,-0.33039984,0.92416185,10.029311,-0.007941248,-0.03848451,-0.0720821,-45.976,-31.808,-46.173
1745691298125,0.0,0.0,0.0,-0.33279404,0.91219085,9.91439,0.01282817,-0.06291912,-0.07819075,-46.783,-31.292002,-45.773003
1745691298135,0.0,0.0,0.0,-0.30885202,0.89303726,9.730036,0.016493361,-0.048258353,-0.076358154,-46.88,-30.767002,-45.358
1745691298145,0.0,0.0,0.0,-0.22026655,0.89303726,9.689334,0.002443461,-0.014660766,-0.07086037,-45.964,-30.229002,-44.602
1745691298155,0.0,0.0,0.0,-0.23223756,0.90021986,9.737218,-0.014049901,0.015882496,-0.07391469,-46.372,-30.655,-45.348003
1745691298166,0.0,0.0,0.0,-0.23702596,0.91458505,9.871294,-0.029932396,0.040317107,-0.07391469,-47.189003,-31.299002,-44.933002
1745691298177,0.0,0.0,0.0,-0.110133275,0.9528923,10.177752,-0.03481932,0.027488936,-0.07941248,-46.485,-32.026,-45.756
1745691298187,0.0,0.0,0.0,0.0047884034,0.9959879,10.33098,-0.016493361,-0.009162978,-0.09162979,-45.775,-31.911001,-45.954002
1745691298201,0.0,0.0,0.0,0.04070143,1.0247183,10.357317,0.0067195175,-0.028710667,-0.10140363,-45.972004,-31.177002,-44.907
1745691298211,0.0,0.0,0.0,-0.02633622,1.0582372,10.110714,0.07147124,-0.05375614,-0.11911872,-46.085003,-32.445,-44.573
1745691298222,0.0,0.0,0.0,-0.050278235,1.0773908,9.885659,0.086132,-0.08552113,-0.11911872,-46.281002,-31.709002,-44.588
1745691298232,0.0,0.0,0.0,-0.04309563,1.1372458,9.689334,0.07880162,-0.08307768,-0.11728613,-45.773003,-31.283,-43.202003
1745691298243,0.0,0.0,0.0,-0.04070143,1.1707647,9.557653,0.040927973,-0.029932396,-0.10934488,-46.185,-32.131,-43.412003
1745691298254,0.0,0.0,0.0,-0.02873042,1.1827357,9.64145,-0.017715093,0.013439035,-0.0983493,-46.992,-31.825,-44.284
1745691298264,0.0,0.0,0.0,-0.14844051,1.127669,9.957485,-0.07147124,0.03481932,-0.087964594,-45.472004,-32.013,-45.415
1745691298274,0.0,0.0,0.0,-0.17717093,1.0941502,10.407595,-0.07880162,0.03176499,-0.077579886,-46.067,-30.545002,-45.874
1745691298285,0.0,0.0,0.0,-0.07182605,1.0941502,10.625467,-0.054367006,0.022602014,-0.07391469,-46.267002,-30.127,-45.035004
1745691298295,0.0,0.0,0.0,-0.01436521,1.1348516,10.67814,-0.002443461,0.0012217305,-0.081855945,-46.187004,-32.343002,-43.091003
1745691298306,0.0,0.0,0.0,-0.047884032,1.2617443,10.496181,0.062308256,-0.048258353,-0.09590584,-44.969,-32.114002,-43.81
1745691298316,0.0,0.0,0.0,-0.06943185,1.3335704,10.158598,0.09712757,-0.07086037,-0.09712757,-45.885002,-32.653,-44.460003
1745691298327,0.0,0.0,0.0,-0.035913024,1.3455414,10.019734,0.12522738,-0.07391469,-0.08368854,-45.472004,-31.908,-45.098003
1745691298337,0.0,0.0,0.0,0.033518825,1.364695,10.070012,0.15515977,-0.07086037,-0.07391469,-45.878002,-31.811,-43.622
1745691298347,0.0,0.0,0.0,-0.0047884034,1.3670892,10.065224,0.17898351,-0.0580322,-0.069027774,-46.087,-32.342003,-42.557003
1745691298357,0.0,0.0,0.0,-0.045489833,1.4580688,9.991004,0.20280726,-0.061086524,-0.06658431,-46.703003,-33.299,-42.77
1745691298367,0.0,0.0,0.0,0.0023942017,1.5179238,9.7324295,0.19914207,-0.051923547,-0.070249505,-46.696003,-32.457,-42.145
1745691298377,0.0,0.0,0.0,-0.045489833,1.5275006,9.526528,0.15882497,-0.016493361,-0.07452556,-44.668003,-32.322002,-43.163002
1745691298387,0.0,0.0,0.0,-0.11492168,1.5729905,9.3661175,0.08552113,0.020158553,-0.07391469,-44.765003,-32.006,-43.807003
1745691298397,0.0,0.0,0.0,-0.30406362,1.5921441,9.385271,0.03481932,0.03481932,-0.06963864,-45.266003,-31.380001,-44.039
1745691298408,0.0,0.0,0.0,-0.39743748,1.5993267,9.5385,-0.029932396,0.05681047,-0.052534413,-44.456,-31.37,-43.596
1745691298419,0.0,0.0,0.0,-0.47165772,1.5610195,9.751583,-0.08979719,0.07513642,-0.029932396,-45.764004,-30.333002,-43.534
1745691298429,0.0,0.0,0.0,-0.49799395,1.5346833,9.902418,-0.12217305,0.07269296,-0.009162978,-46.475002,-30.658,-44.501003
1745691298440,0.0,0.0,0.0,-0.39025488,1.5586253,10.19451,-0.13133603,0.050701816,0.004886922,-46.282,-31.815002,-44.481003
1745691298450,0.0,0.0,0.0,-0.2705448,1.5227122,10.390836,-0.1020145,-0.0067195175,0.0067195175,-44.97,-32.428,-45.292004
1745691298461,0.0,0.0,0.0,-0.19393034,1.4772224,10.357317,-0.040927973,-0.049480084,0.002443461,-46.195004,-33.395,-44.669003
1745691298472,0.0,0.0,0.0,-0.20829555,1.5873557,10.146626,0.03970624,-0.070249505,6.1086525E-4,-46.795002,-32.664,-45.33
1745691298482,0.0,0.0,0.0,-0.260968,1.5969325,9.818622,0.093462385,-0.06414085,0.0061086523,-46.276,-31.181002,-44.914
1745691298492,0.0,0.0,0.0,-0.2896984,1.508347,9.583989,0.09590584,-0.055588737,0.017715093,-45.973003,-31.074001,-43.422
1745691298502,0.0,0.0,0.0,-0.1316811,1.5011644,9.457097,0.047036625,-0.04153884,0.03481932,-45.578003,-31.916002,-41.066
1745691298512,0.0,0.0,0.0,-0.1388637,1.484405,9.500193,0.004886922,-0.013439035,0.048258353,-46.489002,-31.927002,-41.935
1745691298522,0.0,0.0,0.0,-0.038307227,1.5107412,9.631873,-0.036651913,0.028710667,0.057421334,-46.893,-31.930002,-43.431004
1745691298532,0.0,0.0,0.0,-0.02633622,1.448492,9.8042555,-0.050701816,0.04520403,0.06169739,-47.002003,-32.984,-44.693
1745691298542,0.0,0.0,0.0,-0.12449849,1.4101849,9.9790325,-0.053145275,0.021380283,0.070249505,-45.485,-33.175003,-44.019
1745691298553,0.0,0.0,0.0,-0.12689269,1.376666,10.089166,-0.03604105,0.0061086523,0.07513642,-45.172,-32.118,-43.390003
1745691298564,0.0,0.0,0.0,-0.06464344,1.3790601,10.160992,0.004886922,-0.008552114,0.07819075,-46.202003,-34.134003,-44.128002
1745691298574,0.0,0.0,0.0,-0.062249243,1.3335704,10.113108,0.03848451,-0.0061086523,0.07269296,-44.468002,-32.74,-44.108
1745691298585,0.0,0.0,0.0,-0.17956513,1.3455414,10.077195,0.07452556,0.0,0.07086037,-43.24,-31.667002,-45.689003
1745691298595,0.0,0.0,0.0,-0.21308395,1.3311762,9.962274,0.09773844,0.020158553,0.08124508,-46.682003,-31.396002,-45.77
1745691298605,0.0,0.0,0.0,-0.24899697,1.3503298,9.892841,0.100792766,0.037873644,0.095294975,-45.056004,-30.534002,-43.728
1745691298615,0.0,0.0,0.0,-0.2681506,1.3575124,9.775525,0.08002335,0.047036625,0.11056661,-45.368004,-31.277002,-43.087
1745691298625,0.0,0.0,0.0,-0.2801216,1.3694834,9.696517,0.049480084,0.03481932,0.12644911,-46.491,-32.347,-43.204002
1745691298636,0.0,0.0,0.0,-0.2633622,1.3694834,9.65821,0.020158553,0.026267206,0.14355333,-46.388,-32.343002,-44.688004
1745691298647,0.0,0.0,0.0,-0.11492168,1.3120226,9.682152,-0.029932396,0.03481932,0.14172074,-47.100002,-32.460003,-43.640003
1745691298657,0.0,0.0,0.0,-0.18195933,1.2808979,9.80665,-0.06658431,0.03176499,0.13500121,-46.282,-31.815002,-44.481003
1745691298667,0.0,0.0,0.0,-0.20111294,1.2569559,9.911995,-0.080634214,0.03359759,0.13255776,-48.199,-30.996002,-45.278004
1745691298677,0.0,0.0,0.0,-0.22744916,1.2617443,10.04607,-0.081855945,0.049480084,0.13744467,-47.390003,-30.883001,-43.244003
1745691298687,0.0,0.0,0.0,-0.22744916,1.2378023,10.113108,-0.06841691,0.064751714,0.13927728,-46.282,-31.606,-43.315002
1745691298699,0.0,0.0,0.0,-0.25139117,1.2449849,10.144233,-0.020158553,0.08735373,0.14844026,-46.685,-31.295002,-43.010002
1745691298709,0.0,0.0,0.0,-0.29209262,1.2761095,10.019734,0.029321533,0.08368854,0.16493362,-46.277,-31.391,-45.548
1745691298719,0.0,0.0,0.0,-0.30166942,1.2737153,9.856929,0.06352998,0.07452556,0.18387043,-46.172,-30.759,-44.493004
1745691298730,0.0,0.0,0.0,-0.15801731,1.328782,9.667787,0.07819075,0.07941248,0.18936823,-45.776,-31.704002,-43.409
1745691298740,0.0,0.0,0.0,0.0,1.4389153,9.459491,0.080634214,0.061086524,0.17348573,-45.572002,-31.804,-45.314003
1745691298750,0.0,0.0,0.0,-0.04070143,1.4796166,9.301474,0.06047566,0.032986723,0.13988814,-46.994003,-32.245003,-45.340004
1745691298760,0.0,0.0,0.0,-0.19153613,1.460463,9.181764,0.02565634,0.040317107,0.1301143,-47.805004,-31.839,-42.391003
1745691298770,0.0,0.0,0.0,-0.1412579,1.4820108,9.203311,-0.022602014,0.062308256,0.13988814,-46.998,-32.249,-42.367
1745691298780,0.0,0.0,0.0,-0.038307227,1.5466543,9.299079,-0.056199603,0.08124508,0.14355333,-46.894,-32.036003,-43.217003
1745691298790,0.0,0.0,0.0,-0.023942016,1.5873557,9.454702,-0.09101892,0.13072516,0.14110987,-45.669003,-31.279001,-44.899002
1745691298801,0.0,0.0,0.0,-0.045489833,1.5801731,9.646238,-0.10323623,0.15943582,0.13805555,-46.377003,-31.078001,-44.705
1745691298811,0.0,0.0,0.0,-0.088585466,1.6041151,9.900024,-0.10262536,0.16187929,0.13927728,-46.489002,-32.239002,-44.479004
1745691298822,0.0,0.0,0.0,-0.095768064,1.6112977,10.180145,-0.080634214,0.15393804,0.13622294,-46.682003,-30.875002,-42.273003
1745691298832,0.0,0.0,0.0,-0.11731588,1.5825673,10.3214035,-0.057421334,0.13194689,0.12644911,-46.585003,-31.505001,-43.111004
1745691298843,0.0,0.0,0.0,-0.2753332,1.5107412,10.3214035,-0.04153884,0.118507855,0.12095132,-46.49,-32.137,-42.782
1745691298853,0.0,0.0,0.0,-0.2801216,1.5227122,10.208876,-0.039095376,0.13805555,0.13500121,-46.991,-31.616001,-43.119003
1745691298863,0.0,0.0,0.0,-0.19393034,1.5227122,10.108319,-0.0580322,0.15027285,0.13194689,-46.886,-31.296001,-44.183002
1745691298873,0.0,0.0,0.0,-0.31364042,1.4748282,10.13705,-0.099571034,0.16798794,0.12461651,-46.079002,-31.707,-44.159
1745691298884,0.0,0.0,0.0,-0.48841715,1.3862427,10.21127,-0.14660765,0.18570304,0.12767084,-45.668003,-31.069002,-44.371002
1745691298894,0.0,0.0,0.0,-0.5746084,1.2952632,10.357317,-0.18203785,0.18692477,0.12889257,-47.083004,-30.875002,-45.467003
1745691298905,0.0,0.0,0.0,-0.6823475,1.1875241,10.548853,-0.20097467,0.18203785,0.13927728,-46.574,-30.553001,-45.142002
1745691298916,0.0,0.0,0.0,-0.7469909,1.079785,10.879252,-0.18936823,0.16676621,0.15149458,-46.075,-31.284002,-44.696003
1745691298926,0.0,0.0,0.0,-0.6584055,1.0271125,11.073183,-0.14477506,0.14110987,0.17348573,-45.761,-30.434002,-46.718002
1745691298936,0.0,0.0,0.0,-0.51475334,1.0366893,11.133038,-0.077579886,0.13072516,0.17837265,-46.267002,-30.544,-47.684002
1745691298948,0.0,0.0,0.0,-0.545878,1.0366893,10.919954,0.030543262,0.12767084,0.18387043,-47.078003,-30.451002,-46.854004
1745691298958,0.0,0.0,0.0,-0.62728083,1.103727,10.500969,0.115453534,0.12461651,0.19242255,-47.994003,-30.990002,-47.185
1745691298968,0.0,0.0,0.0,-0.6703765,1.151611,10.019734,0.18692477,0.11056661,0.20830505,-46.574,-30.865002,-47.58
1745691298978,0.0,0.0,0.0,-0.7278373,1.2497733,9.595961,0.22540927,0.0720821,0.22602014,-47.780003,-29.617,-46.669003
1745691298989,0.0,0.0,0.0,-0.842759,1.3096284,9.141062,0.22418754,0.034208454,0.24007004,-48.289,-29.94,-46.888
1745691298999,0.0,0.0,0.0,-0.830788,1.3479356,8.887277,0.19486602,0.02565634,0.26511553,-46.06,-29.806002,-46.097004
1745691299010,0.0,0.0,0.0,-0.7230489,1.4149733,8.822633,0.122783914,0.047647487,0.28221974,-46.473003,-30.551,-45.458004
1745691299021,0.0,0.0,0.0,-0.62967503,1.400608,9.01417,0.043982297,0.08002335,0.28771752,-47.088,-31.299002,-44.293003
1745691299032,0.0,0.0,0.0,-0.5554548,1.2952632,9.442732,-0.032375857,0.12095132,0.2779437,-48.091003,-30.361002,-46.134003
1745691299042,0.0,0.0,0.0,-0.5674258,1.1851299,9.785102,-0.06352998,0.15149458,0.26083946,-47.49,-30.986002,-45.262
1745691299053,0.0,0.0,0.0,-0.6560113,1.0414777,10.208876,-0.077579886,0.1459968,0.24129178,-46.980003,-30.663002,-45.362003
1745691299063,0.0,0.0,0.0,-0.6895301,0.92655605,10.412383,-0.073303826,0.09896017,0.226631,-47.778004,-29.302002,-45.93
1745691299073,0.0,0.0,0.0,-0.56982,0.8523358,10.517728,-0.052534413,0.021991149,0.20708331,-47.27,-29.294,-46.662003
1745691299083,0.0,0.0,0.0,-0.47165772,0.8403648,10.426748,-0.01282817,-0.017715093,0.18325958,-46.463,-29.496002,-45.791
1745691299093,0.0,0.0,0.0,-0.5291186,0.80205756,10.299856,0.01282817,-0.015882496,0.1704314,-47.376003,-29.614002,-45.173
1745691299103,0.0,0.0,0.0,-0.5746084,0.7589619,10.175357,0.03604105,0.03726278,0.17165314,-47.685,-30.145002,-45.491
1745691299113,0.0,0.0,0.0,-0.50278234,0.7230489,10.065224,0.032375857,0.076358154,0.17715092,-46.873,-29.924002,-44.839
1745691299123,0.0,0.0,0.0,-0.51235914,0.6871359,9.945514,0.010995574,0.10995574,0.17470746,-47.693,-30.990002,-44.63
1745691299133,0.0,0.0,0.0,-0.6799533,0.6799533,10.000581,-0.020158553,0.1386664,0.1740966,-47.684002,-30.04,-45.280003
1745691299143,0.0,0.0,0.0,-0.61770403,0.63206923,10.172963,-0.055588737,0.12950343,0.17715092,-47.579002,-29.409002,-43.588
1745691299153,0.0,0.0,0.0,-0.60094464,0.61530983,10.436325,-0.07269296,0.111177474,0.172264,-49.002003,-30.163002,-45.202003
1745691299163,0.0,0.0,0.0,-0.6344634,0.5793968,10.6158905,-0.05681047,0.084910266,0.15943582,-47.883003,-29.725002,-45.926003
1745691299174,0.0,0.0,0.0,-0.6727707,0.5530606,10.608707,-0.014049901,0.05131268,0.1441642,-46.262,-29.599,-45.467003
1745691299184,0.0,0.0,0.0,-0.6607997,0.5674258,10.457873,0.0421497,0.02321288,0.12644911,-48.095,-30.887001,-46.339
1745691299194,0.0,0.0,0.0,-0.6823475,0.5530606,10.218452,0.08857546,0.02321288,0.11789699,-47.796,-31.515001,-46.748
1745691299206,0.0,0.0,0.0,-0.6679823,0.62009823,9.859323,0.11728613,0.028710667,0.10262536,-47.586002,-30.460001,-45.484
1745691299216,0.0,0.0,0.0,-0.6823475,0.6344634,9.576807,0.11911872,0.047036625,0.08979719,-47.588,-30.775002,-46.436
1745691299226,0.0,0.0,0.0,-0.78769237,0.6655881,9.229648,0.08735373,0.10140363,0.059864793,-47.280003,-30.349,-46.753002
1745691299236,0.0,0.0,0.0,-0.79726917,0.7613561,9.093178,0.017715093,0.13439035,0.050701816,-47.289,-31.299002,-45.678
1745691299247,0.0,0.0,0.0,-0.7374141,0.78050977,9.215282,-0.031154128,0.13194689,0.05131268,-47.087,-31.193,-44.72
1745691299259,0.0,0.0,0.0,-0.8595184,0.8379706,9.406818,-0.09162979,0.11362094,0.052534413,-47.182003,-30.456001,-44.944
1745691299271,0.0,0.0,0.0,-0.82360536,0.81642276,9.591172,-0.108123146,0.087964594,0.08002335,-47.067,-29.291002,-47.082
1745691299281,0.0,0.0,0.0,-0.7445967,0.7781156,9.667787,-0.09162979,0.09040806,0.09590584,-46.872,-29.714,-44.417004
1745691299292,0.0,0.0,0.0,-0.78290397,0.8283938,9.631873,-0.06169739,0.08307768,0.09712757,-48.189003,-30.045002,-46.247
1745691299303,0.0,0.0,0.0,-0.92655605,0.7781156,9.557653,-0.04886922,0.087964594,0.10262536,-48.701004,-30.581001,-45.508003
1745691299315,0.0,0.0,0.0,-1.0151415,0.6871359,9.572019,-0.06352998,0.09468412,0.119729586,-48.284,-29.517002,-47.743004
1745691299325,0.0,0.0,0.0,-1.0462662,0.59615624,9.720459,-0.0983493,0.10323623,0.11911872,-46.971,-29.922,-47.496002
1745691299335,0.0,0.0,0.0,-1.1013328,0.557849,9.998186,-0.1282817,0.105068825,0.1160644,-48.08,-29.095001,-46.045002
1745691299345,0.0,0.0,0.0,-1.1587936,0.6440403,10.218452,-0.14844026,0.105068825,0.12095132,-46.769,-29.815,-46.431004
1745691299355,0.0,0.0,0.0,-1.1947067,0.6607997,10.429143,-0.1423316,0.099571034,0.13194689,-47.776,-29.196001,-46.674004
1745691299365,0.0,0.0,0.0,-1.2162545,0.60333884,10.455479,-0.11728613,0.087964594,0.13622294,-47.463,-28.138,-46.257004
1745691299376,0.0,0.0,0.0,-1.2689269,0.6679823,10.307038,-0.07269296,0.061086524,0.14905111,-47.376003,-29.822,-47.081
1745691299387,0.0,0.0,0.0,-1.2904748,0.7182605,10.007763,-0.020158553,0.03726278,0.16310102,-47.678,-29.720001,-47.939003
1745691299397,0.0,0.0,0.0,-1.3431472,0.7493851,9.794679,0.012217305,0.009773844,0.1704314,-48.58,-28.573002,-47.338
1745691299408,0.0,0.0,0.0,-1.3718776,0.7733272,9.603143,0.025045475,-0.009162978,0.1826487,-49.194004,-28.901001,-45.011
1745691299418,0.0,0.0,0.0,-1.2234371,0.8379706,9.507375,0.007330383,-0.044593163,0.18875736,-48.066,-27.513,-46.174004
1745691299428,0.0,0.0,0.0,-1.0654198,0.89303726,9.579201,-0.02687807,-0.055588737,0.18509217,-48.678,-28.049002,-46.392002
1745691299438,0.0,0.0,0.0,-0.9864111,0.91219085,9.710882,-0.042760566,-0.039095376,0.17715092,-49.499,-29.115002,-45.546
1745691299448,0.0,0.0,0.0,-0.9935937,0.8714894,9.854534,-0.043982297,-0.014049901,0.18203785,-48.691,-29.421001,-45.311
1745691299458,0.0,0.0,0.0,-0.7589619,0.9911995,9.854534,-0.040317107,0.04153884,0.17287487,-48.598003,-30.264002,-44.766003
1745691299468,0.0,0.0,0.0,-0.61291564,1.0582372,9.85214,-0.040317107,0.050701816,0.13927728,-48.998,-29.637001,-44.572002
1745691299480,0.0,0.0,0.0,-0.80205756,0.9624691,9.737218,-0.0421497,0.054367006,0.09712757,-50.512,-29.025002,-44.827003
1745691299490,0.0,0.0,0.0,-0.7469909,1.0462662,9.763555,-0.06780604,0.034208454,0.06047566,-48.086002,-29.52,-44.022003
1745691299500,0.0,0.0,0.0,-0.6440403,1.055843,9.976639,-0.10873401,-0.0012217305,0.02687807,-47.477,-29.511002,-44.646004
1745691299510,0.0,0.0,0.0,-0.59855044,1.0127473,10.216059,-0.14905111,-0.05375614,-0.018325957,-47.275,-29.822,-46.442
1745691299521,0.0,0.0,0.0,-0.56982,0.9911995,10.42196,-0.15821409,-0.0421497,-0.03848451,-47.267002,-28.978,-46.878002
1745691299532,0.0,0.0,0.0,-0.5650316,1.0199299,10.54167,-0.13561209,0.015882496,-0.06658431,-47.664,-28.139002,-47.430004
1745691299542,0.0,0.0,0.0,-0.61291564,1.091756,10.527305,-0.092240654,0.07574729,-0.081855945,-48.188004,-29.835001,-46.144
1745691299553,0.0,0.0,0.0,-0.7206547,1.1444284,10.42196,-0.04642576,0.1160644,-0.087964594,-48.394,-30.363,-47.097004
1745691299563,0.0,0.0,0.0,-0.8738836,1.1923125,10.2735195,0.0067195175,0.13683382,-0.084910266,-46.967003,-29.186,-45.807003
1745691299574,0.0,0.0,0.0,-0.9840169,1.2497733,10.031705,0.06169739,0.14172074,-0.077579886,-47.267002,-28.873001,-46.561
1745691299585,0.0,0.0,0.0,-1.0199299,1.2808979,9.830592,0.08124508,0.12950343,-0.06536258,-47.47,-28.981,-46.458004
1745691299595,0.0,0.0,0.0,-1.0055647,1.2497733,9.703699,0.076358154,0.08552113,-0.058643065,-48.291004,-30.048002,-45.718002
1745691299606,0.0,0.0,0.0,-1.0606314,1.2449849,9.574412,0.048258353,0.054367006,-0.062308256,-47.784,-30.039001,-46.557003
1745691299617,0.0,0.0,0.0,-1.1420342,1.2138603,9.536105,0.020158553,0.0421497,-0.059864793,-47.986004,-30.147001,-47.090004
1745691299627,0.0,0.0,0.0,-1.1180922,1.13964,9.548077,-0.01160644,0.020158553,-0.052534413,-47.991,-30.465002,-46.13
1745691299637,0.0,0.0,0.0,-1.0773908,1.0486604,9.67018,-0.049480084,-6.1086525E-4,-0.05497787,-47.987003,-29.938002,-45.607002
1745691299647,0.0,0.0,0.0,-1.0127473,0.9600749,9.868899,-0.065973446,-0.007941248,-0.059864793,-47.369003,-28.876001,-45.502003
1745691299658,0.0,0.0,0.0,-0.94810385,0.91937345,10.012551,-0.070249505,-0.005497787,-0.065973446,-47.981003,-29.619001,-47.416
1745691299669,0.0,0.0,0.0,-0.90500826,0.81881696,10.077195,-0.059864793,-0.004276057,-0.08002335,-47.38,-30.035002,-45.592003
1745691299679,0.0,0.0,0.0,-0.92895025,0.7517793,10.060435,-0.04520403,-0.021991149,-0.08857546,-46.568,-29.814001,-45.152
1745691299690,0.0,0.0,0.0,-0.93373865,0.7374141,10.005369,-0.031154128,-0.04337143,-0.09712757,-47.370003,-28.980001,-46.031002
1745691299700,0.0,0.0,0.0,-0.93373865,0.7374141,9.950302,-0.0036651916,-0.06536258,-0.09896017,-48.278004,-28.571001,-45.633003
1745691299711,0.0,0.0,0.0,-0.81642276,0.7517793,9.849746,0.019547688,-0.06658431,-0.10262536,-47.967003,-27.828001,-46.379
1745691299723,0.0,0.0,0.0,-0.7781156,0.80205756,9.785102,0.047036625,-0.06963864,-0.111177474,-47.152,-27.395,-46.792004
1745691299734,0.0,0.0,0.0,-0.830788,0.8379706,9.677363,0.06169739,-0.07880162,-0.1337795,-48.284,-29.205002,-45.199
1745691299744,0.0,0.0,0.0,-0.90979666,0.842759,9.615114,0.059253927,-0.07696902,-0.13988814,-47.682003,-29.62,-44.118004
1745691299754,0.0,0.0,0.0,-0.90500826,0.90021986,9.595961,0.040927973,-0.080634214,-0.14110987,-46.259003,-29.178001,-44.729004
1745691299765,0.0,0.0,0.0,-0.878672,0.93613285,9.607931,0.0061086523,-0.09407325,-0.14721853,-47.879,-29.303001,-46.038002
1745691299775,0.0,0.0,0.0,-0.8619126,0.9672575,9.651027,-0.02443461,-0.081855945,-0.15577064,-47.377003,-29.928001,-46.974003
1745691299785,0.0,0.0,0.0,-0.8858546,0.9816227,9.727641,-0.039095376,-0.042760566,-0.15271631,-47.176003,-29.927002,-45.907
1745691299795,0.0,0.0,0.0,-0.8523358,1.0103531,9.8042555,-0.040317107,-0.021380283,-0.15210545,-47.473003,-29.193,-46.031002
1745691299805,0.0,0.0,0.0,-0.90979666,1.0606314,9.916783,-0.029321533,-0.002443461,-0.15760323,-47.779003,-29.512001,-46.882004
1745691299815,0.0,0.0,0.0,-0.9696517,1.1061212,10.067618,-0.009773844,0.0012217305,-0.15699236,-47.485,-30.564001,-45.799004
1745691299825,0.0,0.0,0.0,-0.94810385,1.127669,10.220847,0.02321288,-0.014049901,-0.1600467,-47.788002,-30.358002,-45.384003
1745691299835,0.0,0.0,0.0,-0.9792285,1.2018893,10.242394,0.06291912,-0.019547688,-0.16249016,-47.370003,-28.981,-45.819004
1745691299846,0.0,0.0,0.0,-1.0869676,1.3024458,10.201694,0.11362094,-0.032375857,-0.16493362,-47.379,-30.035002,-46.017002
1745691299856,0.0,0.0,0.0,-0.93134445,1.400608,9.983821,0.1563815,-0.08307768,-0.17165314,-46.974003,-30.134,-46.431004
1745691299867,0.0,0.0,0.0,-0.9600749,1.4772224,9.727641,0.16493362,-0.12705997,-0.18509217,-47.679,-29.617,-45.923
1745691299877,0.0,0.0,0.0,-1.0271125,1.520318,9.504981,0.14782938,-0.15149458,-0.1863139,-46.767002,-29.500002,-45.480003
1745691299887,0.0,0.0,0.0,-1.0103531,1.5801731,9.392453,0.095294975,-0.15760323,-0.17287487,-47.268,-29.187002,-48.044003
1745691299897,0.0,0.0,0.0,-0.8523358,1.6160861,9.459491,0.04520403,-0.15088372,-0.16798794,-45.646004,-28.851002,-46.419003
1745691299908,0.0,0.0,0.0,-0.6631939,1.6256629,9.622296,0.009773844,-0.14782938,-0.17287487,-45.663002,-30.645002,-45.333004
1745691299919,0.0,0.0,0.0,-0.6679823,1.5825673,9.809045,-0.014049901,-0.15760323,-0.20097467,-47.184002,-30.876001,-45.788002
1745691299929,0.0,0.0,0.0,-0.7278373,1.4796166,10.0341,-0.031154128,-0.17898351,-0.2125811,-46.879,-30.557001,-44.618004
1745691299939,0.0,0.0,0.0,-0.6464345,1.3455414,10.364499,-0.032986723,-0.21135938,-0.22968534,-45.870003,-31.174002,-45.967003
1745691299949,0.0,0.0,0.0,-0.47884035,1.2737153,10.632649,-0.029321533,-0.21991149,-0.24312437,-47.689003,-30.567001,-45.273003
1745691299960,0.0,0.0,0.0,-0.39743748,1.1851299,10.759542,-0.014660766,-0.18875736,-0.2657264,-47.485,-30.250002,-44.211002
1745691299970,0.0,0.0,0.0,-0.5267244,1.1324574,10.778696,0.004886922,-0.14172074,-0.27550024,-47.789,-30.359001,-44.535004
1745691299981,0.0,0.0,0.0,-0.59855044,1.0941502,10.742783,0.03481932,-0.11178834,-0.2706133,-47.390003,-31.196001,-45.363003
1745691299991,0.0,0.0,0.0,-0.6895301,1.0893618,10.563218,0.06658431,-0.08124508,-0.25473082,-47.485,-30.459002,-45.376003
1745691300001,0.0,0.0,0.0,-0.7015011,1.1109096,10.364499,0.080634214,-0.086132,-0.24251351,-45.762,-30.435001,-45.762
1745691300013,0.0,0.0,0.0,-0.7445967,1.0606314,10.170568,0.07513642,-0.084910266,-0.22907446,-45.36,-30.746002,-45.749
1745691300023,0.0,0.0,0.0,-0.7086837,1.0486604,10.125079,0.070249505,-0.077579886,-0.21685717,-46.371002,-30.340002,-44.291
1745691300033,0.0,0.0,0.0,-0.6584055,0.9959879,10.105926,0.073303826,-0.077579886,-0.20952678,-46.073,-30.969002,-44.063004
1745691300043,0.0,0.0,0.0,-0.7015011,0.9840169,10.010158,0.09896017,-0.056199603,-0.2144137,-47.302002,-32.567,-44.280003
1745691300053,0.0,0.0,0.0,-0.80684596,1.0414777,9.988609,0.1282817,-0.044593163,-0.2125811,-47.093002,-31.931002,-44.816
1745691300063,0.0,0.0,0.0,-0.8283938,1.0534488,9.900024,0.16554448,-0.039095376,-0.21074851,-46.691,-32.137,-43.954002
1745691300073,0.0,0.0,0.0,-0.8499416,1.0654198,9.694122,0.20647246,-0.03359759,-0.21074851,-46.584003,-31.503002,-44.279003
1745691300083,0.0,0.0,0.0,-0.91937345,1.1133038,9.502586,0.23396139,-0.028710667,-0.19181168,-46.889004,-31.926,-45.979004
1745691300093,0.0,0.0,0.0,-0.91937345,1.1300632,9.334992,0.23396139,-0.035430185,-0.1740966,-46.993004,-32.139,-45.660004
1745691300103,0.0,0.0,0.0,-0.9672575,1.1204864,9.193734,0.21563543,-0.03726278,-0.15271631,-45.259003,-30.641,-44.58
1745691300113,0.0,0.0,0.0,-0.9528923,1.079785,9.119514,0.16982053,-0.031154128,-0.12889257,-45.658,-30.013,-45.235
1745691300123,0.0,0.0,0.0,-0.92416185,1.079785,9.143456,0.09590584,-0.03481932,-0.12217305,-46.892002,-31.825,-43.326
1745691300134,0.0,0.0,0.0,-0.9792285,1.0342951,9.258378,0.032986723,-0.04886922,-0.11178834,-46.495003,-32.664,-42.562
1745691300144,0.0,0.0,0.0,-1.055843,0.9864111,9.380483,-0.032375857,-0.0421497,-0.103847094,-46.897003,-32.77,-45.755
1745691300155,0.0,0.0,0.0,-1.079785,0.92895025,9.648633,-0.073303826,-0.023823744,-0.09590584,-45.687,-33.073,-43.494003
1745691300167,0.0,0.0,0.0,-1.0726024,0.82599956,9.859323,-0.09590584,-0.028099801,-0.08674286,-44.965004,-31.693,-43.816
1745691300177,0.0,0.0,0.0,-1.079785,0.7757214,10.089166,-0.10445796,-0.01160644,-0.06780604,-44.949,-30.212002,-46.385002
1745691300188,0.0,0.0,0.0,-1.0773908,0.7326257,10.230424,-0.09712757,0.015271631,-0.0580322,-45.359,-30.537,-44.903004
1745691300199,0.0,0.0,0.0,-1.0510546,0.6895301,10.28549,-0.08674286,0.02443461,-0.051923547,-44.759003,-31.373001,-44.24
1745691300210,0.0,0.0,0.0,-1.1085154,0.641646,10.275913,-0.05681047,0.031154128,-0.050701816,-46.182003,-31.919,-44.371002
1745691300220,0.0,0.0,0.0,-1.0989386,0.6655881,10.177752,-0.028710667,0.037873644,-0.051923547,-46.075,-31.390001,-44.907
1745691300231,0.0,0.0,0.0,-1.0630256,0.6895301,10.012551,-0.0030543262,0.04337143,-0.059864793,-46.076004,-31.494001,-45.33
1745691300242,0.0,0.0,0.0,-1.055843,0.6991069,9.868899,0.017715093,0.015271631,-0.0720821,-44.871002,-32.848003,-46.027
1745691300252,0.0,0.0,0.0,-1.0414777,0.6871359,9.7324295,0.021380283,-0.019547688,-0.08307768,-45.075,-33.165,-47.089
1745691300263,0.0,0.0,0.0,-1.0199299,0.7086837,9.607931,0.0061086523,-0.032986723,-0.08735373,-45.676003,-32.017002,-44.889004
1745691300274,0.0,0.0,0.0,-0.9648633,0.7589619,9.425972,-0.028099801,-0.048258353,-0.08307768,-45.465004,-30.961002,-44.050003
1745691300284,0.0,0.0,0.0,-0.91219085,0.7517793,9.3661175,-0.06169739,-0.062308256,-0.07452556,-44.868004,-32.113003,-43.595
1745691300295,0.0,0.0,0.0,-0.79966336,0.7541735,9.330204,-0.108123146,-0.06169739,-0.065973446,-44.973003,-32.745003,-45.075
1745691300305,0.0,0.0,0.0,-0.7350199,0.7469909,9.435549,-0.15577064,-0.029932396,-0.05131268,-45.265003,-31.692001,-46.902
1745691300315,0.0,0.0,0.0,-0.58418524,0.7469909,9.629479,-0.1777618,0.008552114,-0.042760566,-44.873,-32.954002,-45.283
1745691300325,0.0,0.0,0.0,-0.48841715,0.7230489,9.799467,-0.17959438,0.04886922,-0.0421497,-45.08,-33.275,-44.327003
1745691300335,0.0,0.0,0.0,-0.49320555,0.7110779,9.911995,-0.172264,0.08368854,-0.047036625,-45.173,-32.327,-44.342003
1745691300345,0.0,0.0,0.0,-0.58657944,0.6775591,10.043676,-0.15882497,0.11728613,-0.05131268,-45.977,-31.809002,-45.748
1745691300355,0.0,0.0,0.0,-0.6703765,0.62728083,10.180145,-0.14477506,0.11728613,-0.055588737,-44.965004,-32.005,-46.147003
1745691300365,0.0,0.0,0.0,-0.6751649,0.62967503,10.240001,-0.12461651,0.13500121,-0.059864793,-45.269,-31.905,-45.518
1745691300376,0.0,0.0,0.0,-0.7637503,0.7086837,10.3453455,-0.10629055,0.122783914,-0.07819075,-45.678,-32.437,-45.839
1745691300386,0.0,0.0,0.0,-0.8882488,0.7110779,10.395624,-0.0842994,0.05009095,-0.08368854,-44.862003,-31.794,-45.723003
1745691300396,0.0,0.0,0.0,-0.91697925,0.6895301,10.412383,-0.069027774,-0.012217305,-0.07269296,-44.660004,-31.895002,-46.567
1745691300408,0.0,0.0,0.0,-0.82599956,0.7254431,10.407595,-0.04520403,-0.07452556,-0.045814894,-44.855003,-31.159002,-47.006
1745691300420,0.0,0.0,0.0,-0.7278373,0.7493851,10.311827,-0.021380283,-0.081855945,-0.022602014,-45.969,-30.964,-46.291
1745691300430,0.0,0.0,0.0,-0.6560113,0.7254431,10.184934,-0.007941248,-0.06352998,-0.014049901,-44.962,-31.793001,-46.787003
1745691300440,0.0,0.0,0.0,-0.6679823,0.7038953,10.070012,-0.005497787,-0.032986723,-0.009773844,-44.758003,-31.684002,-47.421
1745691300450,0.0,0.0,0.0,-0.6679823,0.6895301,9.97185,-0.007941248,-0.010995574,-0.013439035,-45.371002,-32.012,-45.307003
1745691300460,0.0,0.0,0.0,-0.59855044,0.6991069,9.928755,-0.017104227,0.009773844,-0.021991149,-45.260002,-30.851002,-45.108
1745691300470,0.0,0.0,0.0,-0.5554548,0.7038953,9.919178,-0.035430185,0.013439035,-0.044593163,-45.365,-31.379002,-45.528004
1745691300480,0.0,0.0,0.0,-0.59855044,0.6919243,9.911995,-0.05497787,-0.01160644,-0.06841691,-46.382004,-31.919,-46.286003
1745691300491,0.0,0.0,0.0,-0.7134721,0.6799533,9.969456,-0.06536258,-0.040317107,-0.09285152,-44.761,-32.001003,-47.417004
1745691300502,0.0,0.0,0.0,-0.7326257,0.641646,10.04607,-0.069027774,-0.084910266,-0.0983493,-45.062,-31.585001,-46.262
1745691300513,0.0,0.0,0.0,-0.6512229,0.6368576,10.04607,-0.056199603,-0.11484267,-0.099571034,-45.670002,-31.488,-45.746002
1745691300525,0.0,0.0,0.0,-0.5410896,0.6488287,10.010158,-0.032986723,-0.124005646,-0.09712757,-45.374,-32.432003,-46.469
1745691300535,0.0,0.0,0.0,-0.50038815,0.62488663,9.950302,-0.015271631,-0.10629055,-0.08979719,-45.576004,-32.539,-47.215004
1745691300545,0.0,0.0,0.0,-0.5530606,0.62728083,9.94312,-0.007330383,-0.100792766,-0.08124508,-44.755,-31.368002,-47.638
1745691300555,0.0,0.0,0.0,-0.5650316,0.6464345,9.916783,6.1086525E-4,-0.08246681,-0.07513642,-45.870003,-31.279001,-46.603
1745691300565,0.0,0.0,0.0,-0.61530983,0.6775591,9.885659,0.008552114,-0.06352998,-0.07147124,-44.956,-31.160002,-47.221
1745691300575,0.0,0.0,0.0,-0.59615624,0.6991069,9.895236,0.013439035,-0.0580322,-0.06047566,-43.748,-31.884,-46.122
1745691300586,0.0,0.0,0.0,-0.4333505,0.7110779,9.844957,0.017715093,-0.052534413,-0.057421334,-44.460003,-32.209,-46.133003
1745691300597,0.0,0.0,0.0,-0.20350714,0.7517793,9.832987,0.020158553,-0.052534413,-0.070249505,-46.494003,-32.975002,-45.743004
1745691300607,0.0,0.0,0.0,-0.011971008,0.78529817,9.842564,0.018936822,-0.076358154,-0.0983493,-45.979004,-31.915,-45.109
1745691300618,0.0,0.0,0.0,-0.033518825,0.82360536,9.895236,0.025045475,-0.11362094,-0.119729586,-45.765003,-30.647001,-45.122
1745691300630,0.0,0.0,0.0,-0.079008654,0.8451532,10.206482,0.050701816,-0.18753563,-0.13194689,-45.072002,-32.43,-44.870003
1745691300642,0.0,0.0,0.0,0.0,0.8523358,10.290278,0.10567969,-0.23090707,-0.13744467,-45.079002,-33.378002,-45.706
1745691300652,0.0,0.0,0.0,0.11971009,0.8810662,10.206482,0.16249016,-0.24801129,-0.14172074,-46.175003,-31.284002,-45.654003
1745691300662,0.0,0.0,0.0,0.24420857,0.91937345,9.993398,0.19608775,-0.2443461,-0.14966199,-44.86,-31.791002,-47.316
1745691300672,0.0,0.0,0.0,0.2657564,0.93613285,9.7803135,0.19181168,-0.22479841,-0.16187929,-44.459003,-32.208,-46.77
1745691300682,0.0,0.0,0.0,0.21787235,0.91937345,9.574412,0.14966199,-0.1826487,-0.16920967,-44.669003,-32.741,-45.069
1745691300692,0.0,0.0,0.0,0.1340753,0.9552865,9.370906,0.07819075,-0.1386664,-0.17470746,-44.561,-31.898,-44.122
1745691300702,0.0,0.0,0.0,-0.01436521,0.9864111,9.325416,-0.025045475,-0.10629055,-0.1740966,-45.670002,-31.384,-45.216003
1745691300712,0.0,0.0,0.0,-0.1340753,0.91937345,9.469068,-0.16310102,-0.09162979,-0.16554448,-46.065002,-30.543001,-46.936
1745691300722,0.0,0.0,0.0,-0.24181437,0.8690952,9.753978,-0.27855456,-0.080634214,-0.15271631,-45.167004,-31.903002,-45.622
1745691300733,0.0,0.0,0.0,-0.38307226,0.78769237,10.409989,-0.3652974,-0.054367006,-0.14355333,-45.166,-31.693,-45.413002
1745691300744,0.0,0.0,0.0,-0.39025488,0.7062895,11.204864,-0.3903429,-0.01160644,-0.118507855,-44.659,-31.582,-44.448
1745691300755,0.0,0.0,0.0,-0.32321724,0.6799533,11.784261,-0.32436943,-0.0036651916,-0.10629055,-43.856003,-32.414,-44.63
1745691300765,0.0,0.0,0.0,-0.38307226,0.7565677,11.935096,-0.13194689,0.021380283,-0.09407325,-46.174004,-31.075,-44.913002
1745691300775,0.0,0.0,0.0,-0.5506664,0.8523358,11.741165,0.044593163,0.020158553,-0.08246681,-45.371002,-31.804,-43.823
1745691300787,0.0,0.0,0.0,-0.62967503,0.9888053,10.852917,0.26450464,-0.062308256,-0.06352998,-44.869003,-32.532,-45.925003
1745691300797,0.0,0.0,0.0,-0.6823475,1.151611,9.816227,0.3585779,-0.1459968,-0.053145275,-44.780003,-33.901,-45.692
1745691300807,0.0,0.0,0.0,-0.61291564,1.2449849,8.961497,0.37201694,-0.18875736,-0.027488936,-44.169003,-33.577003,-45.683002
1745691300817,0.0,0.0,0.0,-0.4237737,1.3383588,8.429984,0.3042109,-0.18753563,0.005497787,-44.556004,-31.474,-45.084003
1745691300828,0.0,0.0,0.0,-0.22266077,1.472434,8.1881695,0.19792034,-0.17287487,0.02565634,-45.162003,-31.063002,-43.829002
1745691300839,0.0,0.0,0.0,0.031124622,1.4389153,8.271967,0.04520403,-0.1704314,0.03359759,-45.282,-33.172,-44.227
1745691300849,0.0,0.0,0.0,0.06703765,1.3790601,8.631097,-0.04886922,-0.14844026,0.021991149,-44.876003,-33.271,-45.066
1745691300860,0.0,0.0,0.0,-0.011971008,1.328782,9.035717,-0.095294975,-0.122783914,0.015271631,-45.076004,-32.749,-43.379
1745691300872,0.0,0.0,0.0,-0.10534488,1.1994951,9.459491,-0.09407325,-0.08857546,0.009773844,-44.253002,-31.680002,-45.924004
1745691300882,0.0,0.0,0.0,-0.08619126,1.1659763,9.713276,-0.06719518,-0.047036625,0.010995574,-44.866,-32.006,-44.659
1745691300893,0.0,0.0,0.0,0.011971008,1.0989386,9.888053,-0.058643065,-0.014049901,0.005497787,-45.785004,-32.654003,-42.971
1745691300904,0.0,0.0,0.0,0.0,1.0606314,10.120291,-0.054367006,0.017104227,-0.01038471,-44.562,-31.794,-42.850002
1745691300915,0.0,0.0,0.0,-0.17238252,1.0223241,10.21127,-0.06719518,0.03481932,-0.02076942,-44.764004,-31.796001,-43.173
1745691300925,0.0,0.0,0.0,-0.34715924,0.9911995,10.357317,-0.076358154,0.04153884,-0.014049901,-46.181004,-31.709002,-44.055
1745691300935,0.0,0.0,0.0,-0.533907,0.9959879,10.45069,-0.080634214,0.03970624,-0.0018325958,-44.774002,-33.06,-44.217003
1745691300946,0.0,0.0,0.0,-0.58657944,0.9576807,10.512939,-0.08002335,0.026267206,0.030543262,-44.97,-32.22,-44.021004
1745691300957,0.0,0.0,0.0,-0.581791,0.91458505,10.632649,-0.07147124,0.028099801,0.059253927,-44.762,-31.794,-44.872
1745691300968,0.0,0.0,0.0,-0.6536171,0.89303726,10.714052,-0.044593163,0.032986723,0.09285152,-44.862003,-31.688002,-45.619003
1745691300978,0.0,0.0,0.0,-0.63206923,0.89303726,10.692505,-0.016493361,0.053145275,0.119729586,-43.956,-32.309002,-45.377003
1745691300989,0.0,0.0,0.0,-0.581791,0.92416185,10.630256,0.02076942,0.08246681,0.14538592,-43.347004,-32.404003,-46.955
1745691300999,0.0,0.0,0.0,-0.58657944,0.9744401,10.515334,0.06719518,0.11056661,0.16982053,-44.571003,-33.057003,-44.531002
1745691301009,0.0,0.0,0.0,-0.59376204,1.0510546,10.326192,0.10934488,0.11178834,0.18203785,-43.245003,-32.089,-45.152
1745691301019,0.0,0.0,0.0,-0.6368576,1.1180922,10.0987425,0.14355333,0.09285152,0.20158553,-43.550003,-32.408,-46.429
1745691301029,0.0,0.0,0.0,-0.56982,1.2162545,9.854534,0.16493362,0.0580322,0.21380283,-44.271004,-33.787003,-46.850002
1745691301039,0.0,0.0,0.0,-0.51475334,1.3024458,9.52174,0.17531833,0.015271631,0.22602014,-46.377003,-31.287,-45.977
1745691301049,0.0,0.0,0.0,-0.36391866,1.3455414,9.244013,0.16554448,-0.029321533,0.22602014,-45.97,-31.175001,-46.712
1745691301059,0.0,0.0,0.0,-0.23702596,1.328782,9.0237465,0.12950343,-0.057421334,0.22113322,-45.471,-31.803001,-45.100002
1745691301070,0.0,0.0,0.0,-0.18195933,1.3359646,8.963891,0.073303826,-0.044593163,0.2180789,-45.575,-32.016003,-44.462
1745691301081,0.0,0.0,0.0,-0.088585466,1.3215994,9.081207,-0.0067195175,0.010995574,0.21135938,-45.769,-31.174002,-45.434002
1745691301091,0.0,0.0,0.0,0.016759412,1.292869,9.325416,-0.062308256,0.06352998,0.204029,-46.174004,-31.075,-44.595
1745691301102,0.0,0.0,0.0,0.050278235,1.2378023,9.722853,-0.105068825,0.096516706,0.19120082,-45.162003,-31.272001,-45.100002
1745691301112,0.0,0.0,0.0,0.074220255,1.1899183,10.096349,-0.103847094,0.106901415,0.1826487,-45.763,-30.332,-44.596
1745691301122,0.0,0.0,0.0,0.076614454,1.1372458,10.402806,-0.05681047,0.09773844,0.16737708,-46.372,-30.550001,-45.137
1745691301132,0.0,0.0,0.0,-0.02873042,1.127669,10.443508,-0.014660766,0.07147124,0.15882497,-44.551003,-31.051,-46.152
1745691301143,0.0,0.0,0.0,-0.11731588,1.1300632,10.390836,0.02443461,0.051923547,0.16065755,-43.846,-31.464,-45.811
1745691301155,0.0,0.0,0.0,-0.095768064,1.1540052,10.218452,0.045814894,0.049480084,0.17715092,-45.773003,-31.7,-45.957
1745691301167,0.0,0.0,0.0,0.011971008,1.2042835,10.103531,0.034208454,0.05681047,0.19242255,-45.466003,-31.275002,-45.319004
1745691301178,0.0,0.0,0.0,-0.023942016,1.2473791,10.0748005,0.02687807,0.10445796,0.21380283,-45.475002,-31.912,-43.081
1745691301188,0.0,0.0,0.0,-0.062249243,1.2545617,10.096349,0.02076942,0.13194689,0.2284636,-45.273003,-32.014,-43.287003
1745691301201,0.0,0.0,0.0,-0.11731588,1.2761095,10.127473,0.022602014,0.13744467,0.23518312,-45.372,-32.013,-44.457
1745691301211,0.0,0.0,0.0,-0.30406362,1.2593501,10.30225,0.042760566,0.111177474,0.24678956,-44.055,-32.204002,-46.124
1745691301221,0.0,0.0,0.0,-0.34237084,1.1947067,10.374076,0.0720821,0.0720821,0.25778514,-45.176003,-32.852,-45.715004
1745691301231,0.0,0.0,0.0,-0.36152446,1.1611878,10.364499,0.09407325,0.0580322,0.2657264,-45.778004,-32.332,-46.586002
1745691301242,0.0,0.0,0.0,-0.32800564,1.1324574,10.326192,0.10629055,0.069027774,0.2724459,-45.769,-31.383001,-46.599003
1745691301252,0.0,0.0,0.0,-0.24899697,1.0749966,10.280702,0.10323623,0.07696902,0.27672195,-45.173,-32.745003,-46.779003
1745691301263,0.0,0.0,0.0,-0.17717093,1.0726024,10.175357,0.09040806,0.05131268,0.27305678,-45.774002,-31.910002,-46.485
1745691301274,0.0,0.0,0.0,-0.24420857,1.0199299,10.0987425,0.08307768,0.04642576,0.26267207,-46.475002,-30.867,-45.666
1745691301284,0.0,0.0,0.0,-0.2825158,0.94570965,10.0341,0.06963864,0.039095376,0.25778514,-46.371002,-30.444002,-45.139004
1745691301294,0.0,0.0,0.0,-0.30166942,0.89543146,9.983821,0.05375614,0.03726278,0.25350907,-46.365,-29.812002,-45.041
1745691301304,0.0,0.0,0.0,-0.25378537,0.81642276,10.0341,0.0421497,0.03604105,0.25350907,-45.561,-30.226002,-43.000004
1745691301315,0.0,0.0,0.0,-0.090979666,0.81642276,10.146626,0.029932396,0.045814894,0.24556783,-46.170002,-30.548002,-44.602
1745691301325,0.0,0.0,0.0,-0.08619126,0.79248077,10.201694,0.020158553,0.029932396,0.22052236,-46.579002,-30.871002,-43.863003
1745691301335,0.0,0.0,0.0,-0.11252748,0.7398083,10.25676,0.021991149,-0.017715093,0.21746802,-46.273003,-30.551,-43.224003
1745691301347,0.0,0.0,0.0,-0.033518825,0.7613561,10.184934,0.03359759,-0.06536258,0.21624629,-45.661003,-30.434002,-45.866
1745691301359,0.0,0.0,0.0,0.16280572,0.7733272,10.031705,0.057421334,-0.09712757,0.21563543,-46.277,-31.287,-45.125004
1745691301369,0.0,0.0,0.0,0.36152446,0.80445176,9.78989,0.064751714,-0.10567969,0.19853121,-46.585003,-31.608002,-44.278004
1745691301380,0.0,0.0,0.0,0.39983168,0.8283938,9.569624,0.06291912,-0.08307768,0.18081611,-47.797,-31.307001,-44.946003
1745691301391,0.0,0.0,0.0,0.4381389,0.8379706,9.363723,0.048258353,-0.037873644,0.16065755,-46.06,-29.598001,-44.613003
1745691301401,0.0,0.0,0.0,0.39264908,0.8523358,9.351752,0.017715093,0.0,0.13744467,-45.257004,-30.326002,-43.841003
1745691301411,0.0,0.0,0.0,0.31603462,0.8499416,9.495404,-0.010995574,0.0018325958,0.11178834,-45.768,-30.755001,-43.316
1745691301421,0.0,0.0,0.0,0.18435353,0.82360536,9.746795,-0.032375857,-0.013439035,0.09468412,-46.155003,-28.756,-43.884003
1745691301431,0.0,0.0,0.0,0.12449849,0.7781156,9.900024,-0.035430185,-0.030543262,0.08552113,-45.451004,-29.379002,-44.071003
1745691301441,0.0,0.0,0.0,0.110133275,0.7757214,9.931149,-0.03481932,-0.034208454,0.08246681,-44.941,-29.056002,-44.383003
1745691301453,0.0,0.0,0.0,0.05746084,0.82121116,9.818622,-0.0421497,-0.021380283,0.08368854,-45.757004,-29.594002,-44.075
1745691301463,0.0,0.0,0.0,0.016759412,0.79248077,9.76116,-0.06414085,0.004886922,0.086132,-46.982002,-30.665,-43.875004
1745691301473,0.0,0.0,0.0,-0.05267244,0.7733272,9.82341,-0.103847094,0.025045475,0.08307768,-48.091003,-30.257002,-45.074
1745691301484,0.0,0.0,0.0,-0.12449849,0.7637503,9.933543,-0.11362094,0.03481932,0.08307768,-47.889004,-30.150002,-44.009003
1745691301494,0.0,0.0,0.0,-0.14844051,0.7398083,10.13705,-0.10567969,0.045814894,0.08674286,-47.480003,-29.514002,-42.841003
1745691301504,0.0,0.0,0.0,-0.18435353,0.7517793,10.259154,-0.07819075,0.045814894,0.07452556,-46.879,-30.453001,-43.664
1745691301514,0.0,0.0,0.0,-0.22026655,0.80205756,10.244789,-0.021380283,0.031154128,0.069027774,-47.292004,-31.406002,-44.615
1745691301525,0.0,0.0,0.0,-0.36870706,0.79008657,10.086772,0.009773844,0.02443461,0.07513642,-47.795002,-30.992,-44.420002
1745691301536,0.0,0.0,0.0,-0.30406362,0.78290397,9.773131,0.029932396,0.02565634,0.08979719,-45.459003,-30.224,-43.316
1745691301546,0.0,0.0,0.0,-0.08140286,0.80924016,9.459491,0.004276057,0.0421497,0.08307768,-45.670002,-31.28,-44.368004
1745691301557,0.0,0.0,0.0,-0.02873042,0.80445176,9.239224,-0.043982297,0.06352998,0.062308256,-46.372,-30.446001,-44.183002
1745691301568,0.0,0.0,0.0,-0.1364695,0.7469909,9.246407,-0.12217305,0.10751228,0.021991149,-45.455,-30.010002,-45.231003
1745691301578,0.0,0.0,0.0,-0.39264908,0.7062895,9.385271,-0.17470746,0.15332718,-0.0067195175,-46.575,-30.344002,-43.34
1745691301589,0.0,0.0,0.0,-0.62249243,0.7374141,9.526528,-0.18692477,0.16065755,-0.017715093,-47.488003,-30.880001,-46.007004
1745691301599,0.0,0.0,0.0,-0.7541735,0.7445967,9.739613,-0.1966986,0.14782938,-0.007330383,-45.97,-30.757002,-44.064003
1745691301610,0.0,0.0,0.0,-0.9648633,0.7326257,10.072407,-0.18509217,0.10140363,0.017715093,-46.070004,-30.757002,-44.703003
1745691301622,0.0,0.0,0.0,-0.91937345,0.6871359,10.304645,-0.15515977,0.08368854,0.057421334,-45.862003,-30.227001,-45.131
1745691301633,0.0,0.0,0.0,-0.7637503,0.6368576,10.398018,-0.09468412,0.06841691,0.10262536,-46.767002,-29.709002,-46.963
1745691301643,0.0,0.0,0.0,-0.6847417,0.6392518,10.386047,-0.042760566,0.07086037,0.124005646,-47.077003,-30.347002,-46.324
1745691301654,0.0,0.0,0.0,-0.59376204,0.62009823,10.2974615,-0.009773844,0.07513642,0.1337795,-47.489002,-30.882002,-44.733
1745691301664,0.0,0.0,0.0,-0.5291186,0.6536171,10.079589,0.0018325958,0.08979719,0.1282817,-47.285004,-30.668001,-44.838
1745691301675,0.0,0.0,0.0,-0.545878,0.6799533,9.878476,-0.014660766,0.073303826,0.10873401,-46.774002,-30.343002,-46.211002
1745691301686,0.0,0.0,0.0,-0.61291564,0.6967127,9.799467,-0.03848451,0.059253927,0.096516706,-46.675003,-30.554,-45.250004
1745691301697,0.0,0.0,0.0,-0.6464345,0.770933,9.890448,-0.06719518,0.04642576,0.08368854,-47.179,-30.035002,-44.101
1745691301707,0.0,0.0,0.0,-0.6631939,0.78529817,9.909601,-0.07391469,0.04886922,0.07941248,-47.495003,-31.306002,-43.241
1745691301719,0.0,0.0,0.0,-0.6703765,0.80924016,9.909601,-0.065973446,0.06719518,0.081855945,-46.885002,-31.295002,-45.032
1745691301729,0.0,0.0,0.0,-0.6943185,0.8523358,9.821015,-0.059253927,0.08979719,0.1020145,-46.764004,-29.079,-45.273003
1745691301739,0.0,0.0,0.0,-0.641646,0.8571242,9.849746,-0.055588737,0.09896017,0.118507855,-47.881,-29.410002,-45.612003
1745691301750,0.0,0.0,0.0,-0.533907,0.8882488,9.976639,-0.06047566,0.11301007,0.12339478,-47.889004,-30.255001,-44.751003
1745691301760,0.0,0.0,0.0,-0.50517654,0.8858546,10.19451,-0.06291912,0.108123146,0.122783914,-46.673,-30.551,-47.268
1745691301770,0.0,0.0,0.0,-0.4261679,0.830788,10.359711,-0.06352998,0.10629055,0.11362094,-47.082,-30.770002,-45.469
1745691301781,0.0,0.0,0.0,-0.4141969,0.80205756,10.520123,-0.059253927,0.09590584,0.09468412,-47.173,-29.506,-45.276
1745691301793,0.0,0.0,0.0,-0.45250413,0.80684596,10.5919485,-0.049480084,0.073303826,0.07086037,-46.764004,-29.287,-46.757004
1745691301803,0.0,0.0,0.0,-0.58418524,0.7541735,10.649409,-0.016493361,0.069027774,0.062308256,-47.475002,-29.403002,-46.028004
1745691301815,0.0,0.0,0.0,-0.51954174,0.7733272,10.548853,0.04642576,0.07269296,0.06780604,-47.368004,-28.769001,-46.034
1745691301825,0.0,0.0,0.0,-0.5410896,0.8643068,10.359711,0.115453534,0.10323623,0.070249505,-45.858,-30.012001,-47.363003
1745691301835,0.0,0.0,0.0,-0.6679823,0.89782566,10.043676,0.15515977,0.12034045,0.07819075,-46.959003,-28.759,-48.998
1745691301845,0.0,0.0,0.0,-0.7110779,0.92895025,9.799467,0.16554448,0.12950343,0.08857546,-47.461002,-28.344002,-49.122
1745691301855,0.0,0.0,0.0,-0.7302315,0.9624691,9.67018,0.15882497,0.12095132,0.09285152,-46.764004,-29.392002,-47.074
1745691301865,0.0,0.0,0.0,-0.78290397,1.0055647,9.605537,0.13439035,0.10567969,0.096516706,-47.381,-30.245,-46.226
1745691301875,0.0,0.0,0.0,-0.9744401,0.9648633,9.655815,0.108123146,0.1001819,0.10262536,-46.259003,-29.387001,-45.894
1745691301885,0.0,0.0,0.0,-1.1013328,0.93613285,9.816227,0.08307768,0.096516706,0.111177474,-46.458004,-28.864002,-45.163002
1745691301896,0.0,0.0,0.0,-1.1013328,0.91937345,9.921572,0.080634214,0.07086037,0.1282817,-48.280003,-28.886002,-46.902
1745691301906,0.0,0.0,0.0,-0.9744401,0.89543146,9.904813,0.08246681,0.0421497,0.1441642,-46.049004,-28.750002,-47.385002
1745691301917,0.0,0.0,0.0,-1.0319009,0.79008657,9.900024,0.096516706,0.017104227,0.1441642,-46.553,-28.441002,-46.976
1745691301928,0.0,0.0,0.0,-1.0103531,0.7757214,9.751583,0.10995574,0.0,0.15027285,-47.676003,-29.300001,-46.458004
1745691301939,0.0,0.0,0.0,-0.8595184,0.78529817,9.56723,0.11056661,-6.1086525E-4,0.13744467,-46.666,-29.499,-45.159
1745691301949,0.0,0.0,0.0,-0.8331822,0.8690952,9.526528,0.09712757,0.010995574,0.112399206,-47.285004,-30.773,-45.367
1745691301961,0.0,0.0,0.0,-0.93613285,0.830788,9.588778,0.08307768,0.019547688,0.09285152,-47.979004,-29.303001,-47.421
1745691301971,0.0,0.0,0.0,-1.0007763,0.8714894,9.849746,0.084910266,0.037873644,0.08857546,-46.460003,-29.388,-47.386
1745691301981,0.0,0.0,0.0,-0.866701,0.80205756,9.868899,0.103847094,0.052534413,0.08857546,-45.945004,-28.432001,-47.494003
1745691301992,0.0,0.0,0.0,-0.92655605,0.80205756,9.785102,0.112399206,0.04886922,0.08124508,-46.646004,-27.388,-46.781002
1745691302002,0.0,0.0,0.0,-0.94570965,0.8738836,9.627085,0.08674286,0.042760566,0.07513642,-47.583004,-30.039001,-44.959003
1745691302012,0.0,0.0,0.0,-0.89782566,0.93613285,9.569624,0.049480084,0.0421497,0.054367006,-47.571003,-28.981,-47.098003
1745691302022,0.0,0.0,0.0,-0.9696517,0.91697925,9.634268,-0.0030543262,0.034208454,0.016493361,-47.577003,-29.614002,-46.876003
1745691302032,0.0,0.0,0.0,-0.9552865,0.92416185,9.78989,-0.04520403,0.035430185,-0.004276057,-47.275,-29.717001,-46.019
1745691302042,0.0,0.0,0.0,-1.3144168,0.7517793,10.19451,-0.08124508,0.004276057,-0.018936822,-47.068,-29.292002,-46.551003
1745691302052,0.0,0.0,0.0,-0.8499416,0.90021986,10.192117,-0.092240654,-0.040927973,0.019547688,-46.859,-28.656002,-46.980003
1745691302064,0.0,0.0,0.0,-0.62967503,1.1707647,10.398018,-0.09773844,-0.052534413,0.01282817,-47.163002,-28.764002,-47.516003
1745691302074,0.0,0.0,0.0,-0.45250413,1.0271125,10.3932295,-0.09590584,-0.07452556,-0.01282817,-46.873,-29.924002,-44.945004
1745691302085,-6.1976860524664374,4.169668424205624,0.0,-0.50278234,0.9935937,10.352529,-0.10445796,-0.058643065,-0.047036625,-46.065002,-30.125002,-44.712
1745691302095,-6.192145675609013,4.16931511212893,0.0,-0.51714754,1.1348516,10.216059,-0.12156218,-0.026267206,-0.055588737,-46.559002,-28.969002,-46.119003
1745691302105,-6.186605298751589,4.1689618000522355,0.0,-0.47884035,1.2401965,10.120291,-0.12767084,0.012217305,-0.054367006,-47.659,-27.193,-45.426003
1745691302115,-6.181064921894165,4.168608487975541,0.0,-0.62728083,1.3910311,10.149021,-0.118507855,0.035430185,-0.073303826,-48.174004,-28.149002,-44.999
1745691302125,-6.17552454503674,4.168255175898847,0.0,-0.78529817,1.448492,10.19451,-0.08552113,0.026267206,-0.076358154,-47.162003,-28.346,-45.611004
1745691302135,-6.169984168179316,4.167901863822152,0.0,-0.80205756,1.3958195,10.077195,-0.032375857,0.031154128,-0.06414085,-47.163002,-28.451002,-45.715004
1745691302145,-6.164443791321892,4.167548551745457,0.0,-0.6727707,1.3311762,9.873688,0.017715093,0.021991149,-0.05497787,-47.97,-28.145,-45.844
1745691302155,-6.158903414464468,4.1671952396687635,0.0,-0.641646,1.4628572,9.672575,0.05497787,0.017715093,-0.05009095,-47.163002,-28.451002,-45.928
1745691302166,-6.152808999921302,4.166806596384399,0.0,-0.533907,1.5035586,9.414001,0.06780604,0.03359759,-0.05009095,-46.358,-29.177002,-46.643
1745691302177,-6.146714585378135,4.166417953100035,0.0,-0.60094464,1.4413095,9.215282,0.04520403,0.059253927,-0.069027774,-46.568,-30.128002,-46.847004
1745691302187,-6.14117420852071,4.166064641023341,0.0,-0.7278373,1.4389153,9.174581,0.009162978,0.06414085,-0.0842994,-47.278004,-30.243002,-47.179
1745691302197,-6.135633831663286,4.165711328946647,0.0,-0.90979666,1.4772224,9.251195,-0.04337143,0.06169739,-0.09896017,-47.181004,-30.559002,-46.005
1745691302207,-6.130093454805862,4.165358016869952,0.0,-1.0821792,1.4413095,9.406818,-0.080634214,0.06658431,-0.1001819,-46.670002,-30.130001,-46.424004
1745691302218,-6.123999040262695,4.164969373585588,0.0,-1.055843,1.4221559,9.560047,-0.10751228,0.069027774,-0.09101892,-46.567,-30.022001,-47.06
1745691302228,-6.118458663405271,4.164616061508894,0.0,-0.9552865,1.3263878,9.603143,-0.11728613,0.073303826,-0.08307768,-47.974003,-28.567001,-46.157
1745691302238,-6.112918286547846,4.164262749432199,0.0,-0.94570965,1.2497733,9.689334,-0.11484267,0.09040806,-0.08246681,-47.061,-28.449001,-46.350002
1745691302248,-6.107377909690422,4.163909437355505,0.0,-0.9576807,1.2234371,9.703699,-0.105068825,0.0983493,-0.077579886,-46.878002,-30.765001,-46.632004
1745691302260,-6.100729457461513,4.163485462863472,0.0,-0.8690952,1.2330139,9.689334,-0.09407325,0.106901415,-0.07391469,-46.973003,-30.028002,-46.751003
1745691302270,-6.095189080604089,4.163132150786777,0.0,-0.93373865,1.1731589,9.742006,-0.09040806,0.11301007,-0.07269296,-46.864002,-28.87,-44.641003
1745691302280,-6.089648703746665,4.162778838710083,0.0,-0.9744401,1.1061212,9.986216,-0.08002335,0.095294975,-0.06536258,-46.061,-29.807001,-45.247
1745691302290,-6.084108326889241,4.162425526633388,0.0,-0.8858546,1.091756,10.089166,-0.050701816,0.06169739,-0.057421334,-46.472004,-30.550001,-45.564003
1745691302300,-6.078567950031816,4.1620722145566935,0.0,-0.7685388,1.1372458,10.156203,-0.009162978,0.04642576,-0.06291912,-47.881,-29.723001,-47.306004
1745691302310,-6.073027573174392,4.16171890248,0.0,-0.7158663,1.115698,10.067618,0.028099801,0.01160644,-0.077579886,-46.565002,-29.706001,-46.746002
1745691302321,-6.066933158631225,4.161330259195635,0.0,-0.6775591,1.0726024,9.885659,0.042760566,-0.021380283,-0.087964594,-46.166,-30.230001,-45.668003
1745691302331,-6.061392781773801,4.160976947118941,0.0,-0.6368576,1.079785,9.689334,0.03848451,-0.042760566,-0.09101892,-45.86,-30.224,-47.042004
1745691302342,-6.055298367230635,4.160588303834577,0.0,-0.62249243,1.1252748,9.598354,0.0036651916,-0.062308256,-0.10751228,-46.458004,-28.655,-43.679
1745691302352,-6.049757990373211,4.160234991757883,0.0,-0.58657944,1.1468226,9.698911,-0.028710667,-0.06169739,-0.11301007,-47.273003,-29.402002,-45.386
1745691302363,-6.043663575830044,4.159846348473518,0.0,-0.5746084,1.1252748,9.916783,-0.05009095,-0.05009095,-0.112399206,-47.487003,-30.984001,-47.068
1745691302373,-6.038123198972619,4.1594930363968246,0.0,-0.5793968,1.1324574,10.199299,-0.030543262,-0.035430185,-0.10934488,-45.854004,-29.591002,-46.944004
1745691302383,-6.032582822115195,4.15913972432013,0.0,-0.62488663,1.1611878,10.524911,0.009162978,-0.036651913,-0.099571034,-46.569004,-30.233002,-46.951004
1745691302393,-6.027042445257771,4.158786412243435,0.0,-0.59615624,1.2042835,10.6398325,0.07696902,-0.047036625,-0.09468412,-47.177002,-30.137001,-46.223003
1745691302403,-6.021502068400347,4.158433100166741,0.0,-0.62488663,1.2473791,10.496181,0.14905111,-0.08246681,-0.0983493,-47.170002,-29.607002,-48.142002
1745691302413,-6.015961691542922,4.158079788090046,0.0,-0.6655881,1.3144168,10.213664,0.1863139,-0.10140363,-0.10323623,-46.679,-30.975002,-45.457
1745691302423,-6.010421314685498,4.157726476013352,0.0,-0.80205756,1.3479356,9.952697,0.19486602,-0.13194689,-0.1020145,-47.081,-30.560001,-44.835003
1745691302433,-6.004880937828074,4.157373163936658,0.0,-0.7302315,1.4221559,9.77792,0.18875736,-0.14355333,-0.099571034,-47.272003,-29.296001,-45.706
1745691302444,-5.998786523284907,4.156984520652293,0.0,-0.7422025,1.4197617,9.7084875,0.1600467,-0.15577064,-0.10995574,-46.664,-29.288002,-45.480003
1745691302454,-5.993246146427483,4.156631208575599,0.0,-0.6991069,1.3479356,9.698911,0.10629055,-0.15210545,-0.1301143,-47.693,-31.199001,-46.007004
1745691302464,-5.987705769570058,4.156277896498905,0.0,-0.6703765,1.2665327,9.758766,0.040317107,-0.13561209,-0.14844026,-47.692,-31.302002,-47.705
1745691302476,-5.98105731734115,4.155853922006871,0.0,-0.521936,1.163582,9.991004,-0.040317107,-0.09285152,-0.17654006,-47.485,-30.668001,-46.541
1745691302486,-5.975516940483725,4.155500609930177,0.0,-0.48602295,1.0295067,10.177752,-0.09162979,-0.051923547,-0.20830505,-45.651,-29.274002,-45.458004
1745691302496,-5.969976563626301,4.155147297853483,0.0,-0.58897364,0.90500826,10.362105,-0.12461651,0.01282817,-0.22785273,-46.672,-30.340002,-46.74
1745691302506,-5.964436186768877,4.154793985776788,0.0,-0.6440403,0.7781156,10.589554,-0.13500121,0.06291912,-0.22602014,-46.869003,-29.815,-47.601
1745691302516,-5.958895809911453,4.154440673700093,0.0,-0.63206923,0.7445967,10.764331,-0.12950343,0.07941248,-0.22113322,-46.261,-29.703001,-46.421
1745691302526,-5.953355433054028,4.154087361623399,0.0,-0.6919243,0.6871359,10.9103775,-0.087964594,0.076358154,-0.22113322,-46.172,-31.073002,-46.187004
1745691302536,-5.947815056196604,4.1537340495467046,0.0,-0.6871359,0.59376204,11.063606,-0.023823744,0.049480084,-0.21624629,-45.661003,-30.330002,-44.806004
1745691302546,-5.94227467933918,4.15338073747001,0.0,-0.7350199,0.5410896,10.97502,0.058643065,0.005497787,-0.22602014,-44.954002,-30.740002,-46.271004
1745691302557,-5.936180264796013,4.152992094185646,0.0,-0.9528923,0.56982,10.737994,0.15699236,-0.035430185,-0.23457226,-45.359,-30.745,-46.280003
1745691302569,-5.929531812567104,4.152568119693613,0.0,-1.103727,0.62249243,10.2495775,0.23090707,-0.059253927,-0.21624629,-47.086002,-30.982002,-44.404003
1745691302581,-5.922883360338195,4.1521441452015795,0.0,-1.1923125,0.7015011,9.674969,0.258396,-0.05375614,-0.18570304,-46.768,-29.709002,-46.538002
1745691302591,-5.91734298348077,4.151790833124885,0.0,-1.2042835,0.7374141,9.390059,0.24617869,-0.014660766,-0.15088372,-46.074,-31.075,-43.849003
1745691302602,-5.911248568937604,4.151402189840521,0.0,-1.2449849,0.79248077,9.267955,0.20647246,0.02443461,-0.11178834,-44.549004,-30.526001,-44.354004
1745691302613,-5.905154154394437,4.1510135465561575,0.0,-1.2569559,0.85473,9.244013,0.16187929,0.03481932,-0.08857546,-45.260002,-30.956001,-45.638
1745691302623,-5.899613777537013,4.150660234479463,0.0,-1.2162545,0.8571242,9.251195,0.11484267,0.019547688,-0.07696902,-46.887,-31.61,-45.559002
1745691302633,-5.894073400679589,4.150306922402769,0.0,-1.0893618,0.82599956,9.296685,0.056199603,-0.042760566,-0.07574729,-46.176003,-31.494001,-46.500004
1745691302643,-5.8885330238221645,4.149953610326074,0.0,-0.9504981,0.81163436,9.40203,0.013439035,-0.093462385,-0.084910266,-45.462,-30.957,-46.492
1745691302654,-5.882438609278998,4.1495649670417105,0.0,-0.91219085,0.7469909,9.531317,-0.02687807,-0.12644911,-0.096516706,-44.754,-30.949001,-45.733
1745691302665,-5.8763441947358315,4.149176323757346,0.0,-0.7206547,0.6823475,9.682152,-0.06719518,-0.12522738,-0.11789699,-45.351,-29.901001,-46.823
1745691302675,-5.870803817878407,4.148823011680652,0.0,-0.7278373,0.60812724,9.813833,-0.09407325,-0.08552113,-0.1301143,-45.766003,-30.753002,-45.121002
1745691302686,-5.86470940333524,4.148434368396288,0.0,-0.7685388,0.5386954,10.084377,-0.09896017,-0.035430185,-0.13683382,-45.875004,-31.806002,-46.383003
1745691302697,-5.858614988792073,4.148045725111924,0.0,-0.7517793,0.47405192,10.402806,-0.07269296,0.018936822,-0.13316862,-44.553,-31.053001,-44.771004
1745691302707,-5.853074611934649,4.147692413035229,0.0,-0.6440403,0.49799395,10.5680065,-0.025045475,0.044593163,-0.13439035,-44.664,-32.317,-46.349003
1745691302718,-5.846980197391483,4.147303769750866,0.0,-0.6703765,0.5243302,10.55843,0.021991149,0.040927973,-0.14844026,-45.773003,-31.909002,-47.229004
1745691302728,-5.841439820534059,4.146950457674171,0.0,-0.7254431,0.5674258,10.371682,0.06841691,0.008552114,-0.15699236,-45.465004,-31.274002,-46.381
1745691302738,-5.8358994436766345,4.146597145597477,0.0,-0.8283938,0.6344634,9.921572,0.10751228,-0.054367006,-0.15943582,-46.578003,-31.183,-46.407
1745691302748,-5.83035906681921,4.146243833520782,0.0,-0.81163436,0.6823475,9.457097,0.09468412,-0.0842994,-0.15454891,-44.451,-30.947002,-44.558002
1745691302759,-5.824264652276043,4.145855190236419,0.0,-0.7206547,0.7158663,9.148245,0.04520403,-0.11362094,-0.15332718,-44.541,-29.787,-45.320004
1745691302771,-5.8176162000471345,4.145431215744385,0.0,-0.6823475,0.6823475,9.114726,-0.037873644,-0.111177474,-0.14355333,-44.747,-30.210001,-45.955
1745691302783,-5.810967747818225,4.145007241252352,0.0,-0.6655881,0.62967503,9.346964,-0.10934488,-0.089186326,-0.13927728,-44.451,-30.946001,-44.664
1745691302793,-5.805427370960801,4.144653929175657,0.0,-0.6727707,0.56982,9.660604,-0.1441642,-0.06963864,-0.12889257,-45.368004,-31.695002,-46.055
1745691302804,-5.799332956417635,4.144265285891294,0.0,-0.5410896,0.45489833,10.146626,-0.15210545,-0.04520403,-0.11911872,-44.752003,-30.738,-45.736004
1745691302815,-5.793238541874468,4.143876642606929,0.0,-0.5363012,0.48841715,10.412383,-0.119729586,-0.034208454,-0.11789699,-44.448,-30.839,-45.940002
1745691302827,-5.786590089645559,4.143452668114896,0.0,-0.521936,0.45968673,10.45069,-0.062308256,-0.031154128,-0.118507855,-43.933002,-29.883001,-46.154003
1745691302839,-5.779941637416649,4.143028693622862,0.0,-0.557849,0.557849,10.160992,-0.008552114,-0.019547688,-0.112399206,-44.760002,-31.583002,-44.875004
1745691302849,-5.774401260559225,4.1426753815461685,0.0,-0.62249243,0.6631939,9.856929,0.020158553,-0.028710667,-0.11056661,-45.465004,-31.274002,-45.956
1745691302859,-5.768860883701801,4.142322069469474,0.0,-0.6512229,0.6727707,9.610326,0.01282817,-0.043982297,-0.10751228,-45.565002,-31.274002,-46.914
1745691302869,-5.7633205068443765,4.141968757392779,0.0,-0.6991069,0.7422025,9.461885,-0.015271631,-0.07269296,-0.10751228,-45.363003,-31.272001,-46.379
1745691302880,-5.7572260923012095,4.141580114108415,0.0,-0.6584055,0.78290397,9.459491,-0.059253927,-0.08674286,-0.10262536,-44.966003,-32.215,-46.888
1745691302893,-5.750023602386558,4.141120808408712,0.0,-0.581791,0.7374141,9.627085,-0.09407325,-0.10995574,-0.10629055,-45.068,-32.218002,-46.147003
1745691302903,-5.744483225529134,4.1407674963320185,0.0,-0.58897364,0.7445967,9.847352,-0.100792766,-0.105068825,-0.11362094,-45.570004,-31.802002,-46.588
1745691302913,-5.7389428486717105,4.140414184255324,0.0,-0.5602432,0.7541735,10.000581,-0.09040806,-0.084910266,-0.1160644,-45.071003,-32.534,-46.142002
1745691302923,-5.733402471814285,4.140060872178629,0.0,-0.5315128,0.7493851,10.01734,-0.06414085,-0.059253927,-0.11178834,-45.677002,-32.331,-46.265003
1745691302934,-5.727308057271119,4.139672228894265,0.0,-0.5386954,0.78290397,9.909601,-0.045814894,-0.04520403,-0.11301007,-45.671,-31.594002,-45.638
1745691302944,-5.721767680413695,4.139318916817571,0.0,-0.5722142,0.78769237,9.849746,-0.04642576,-0.026267206,-0.108123146,-44.664,-32.214,-45.076004
1745691302954,-5.716227303556271,4.138965604740877,0.0,-0.60333884,0.7661445,9.85214,-0.05375614,0.002443461,-0.10751228,-44.154003,-31.681002,-44.541
1745691302964,-5.7106869266988465,4.138612292664182,0.0,-0.60094464,0.7613561,9.844957,-0.05681047,0.0036651916,-0.10995574,-43.854004,-32.307003,-45.694004
1745691302974,-5.705146549841422,4.138258980587487,0.0,-0.6512229,0.7374141,9.895236,-0.059864793,-0.04520403,-0.116675265,-43.951,-31.781002,-45.703003
1745691302985,-5.699052135298255,4.137870337303124,0.0,-0.6919243,0.6919243,9.969456,-0.06352998,-0.081855945,-0.12156218,-45.265003,-31.587002,-46.266003
1745691302995,-5.693511758440831,4.13751702522643,0.0,-0.7302315,0.641646,9.991004,-0.06047566,-0.10934488,-0.12156218,-45.97,-30.757002,-44.064003
1745691303006,-5.687417343897664,4.137128381942065,0.0,-0.6703765,0.59136784,9.962274,-0.06414085,-0.092240654,-0.11178834,-45.575,-31.807001,-43.084003
1745691303017,-5.681322929354498,4.136739738657702,0.0,-0.59855044,0.5410896,9.950302,-0.07574729,-0.049480084,-0.100792766,-45.364002,-31.064001,-44.471
1745691303028,-5.675228514811331,4.136351095373338,0.0,-0.5650316,0.5291186,10.005369,-0.08368854,-0.018325957,-0.108123146,-44.472004,-33.267002,-44.420002
1745691303038,-5.669688137953907,4.135997783296643,0.0,-0.7062895,0.50517654,10.038888,-0.08857546,0.026267206,-0.11301007,-45.062,-31.585001,-46.368004
1745691303049,-5.66359372341074,4.13560914001228,0.0,-0.7398083,0.50038815,10.012551,-0.09285152,0.017715093,-0.11362094,-44.86,-31.582,-46.47
1745691303059,-5.658053346553316,4.135255827935585,0.0,-0.78290397,0.5243302,10.089166,-0.09468412,-0.019547688,-0.11728613,-45.263,-31.377,-46.163002
1745691303069,-5.652512969695891,4.13490251585889,0.0,-0.7182605,0.50038815,10.199299,-0.092240654,-0.05497787,-0.11789699,-45.56,-30.746002,-47.665
1745691303079,-5.646972592838467,4.134549203782196,0.0,-0.6560113,0.48602295,10.160992,-0.07819075,-0.070249505,-0.11789699,-44.649002,-30.839,-47.431004
1745691303090,-5.640878178295301,4.134160560497832,0.0,-0.6344634,0.48841715,10.089166,-0.06169739,-0.073303826,-0.12095132,-44.152,-31.887001,-47.617
1745691303101,-13.9815758219672,3.869576468527937,0.0,-0.63206923,0.47644615,10.113108,-0.061086524,-0.07147124,-0.108123146,-44.050003,-31.885002,-47.615
1745691303111,-13.977970287393008,3.8695415752572275,0.0,-0.5793968,0.47644615,10.184934,-0.05131268,-0.056199603,-0.093462385,-43.241,-31.980001,-47.596
1745691303122,-13.974004199361397,3.869503192659447,0.0,-0.5650316,0.49559975,10.271125,-0.034208454,-0.030543262,-0.08246681,-44.453003,-31.366001,-45.826004
1745691303132,-13.970398664787208,3.8694682993887377,0.0,-0.5674258,0.49081135,10.2974615,-0.015271631,-0.009162978,-0.0720821,-44.15,-31.258001,-44.865
1745691303143,-13.966432576755597,3.869429916790957,0.0,-0.6368576,0.50996494,10.338163,0.017104227,-0.002443461,-0.069027774,-44.446003,-30.523,-45.519
1745691303155,-13.962105935266568,3.8693880448661058,0.0,-0.59376204,0.557849,10.263943,0.051923547,-0.012217305,-0.07086037,-44.960003,-31.478,-46.155003
1745691303165,-13.958500400692376,3.869353151595396,0.0,-0.47165772,0.6392518,10.0341,0.093462385,-0.044593163,-0.0720821,-43.849003,-31.884,-46.761
1745691303175,-13.954894866118186,3.869318258324687,0.0,-0.45489833,0.7230489,9.80665,0.10629055,-0.048258353,-0.077579886,-44.362003,-32.837,-48.246002
1745691303186,-13.950928778086576,3.8692798757269062,0.0,-0.3878607,0.7422025,9.545682,0.10751228,-0.05497787,-0.07941248,-44.565002,-32.737003,-46.978
1745691303196,-13.947323243512384,3.8692449824561965,0.0,-0.30885202,0.78769237,9.399636,0.09712757,-0.04337143,-0.07819075,-43.659,-33.358,-46.524002
1745691303206,-13.943717708938193,3.8692100891854873,0.0,-0.2896984,0.80684596,9.323022,0.0720821,-0.0067195175,-0.077579886,-43.448,-32.614002,-48.229004
1745691303216,-13.940112174364002,3.8691751959147775,0.0,-0.2633622,0.80684596,9.351752,0.047647487,0.01038471,-0.070249505,-43.243004,-32.295002,-48.016003
1745691303226,-13.936506639789812,3.8691403026440683,0.0,-0.2681506,0.8475474,9.485827,0.028099801,0.015271631,-0.06169739,-44.256,-31.996002,-46.025
1745691303236,-13.93290110521562,3.8691054093733586,0.0,-0.20111294,0.85473,9.61272,0.01282817,0.010995574,-0.059864793,-43.845,-31.253002,-45.708004
1745691303246,-13.929295570641429,3.8690705161026493,0.0,-0.107739076,0.90021986,9.651027,0.004276057,0.0030543262,-0.06658431,-44.253002,-31.784002,-46.559002
1745691303256,-13.925690036067238,3.8690356228319396,0.0,-0.11252748,0.9864111,9.734824,-0.008552114,-0.007330383,-0.076358154,-44.257004,-32.31,-47.401
1745691303267,-13.921723948035627,3.868997240234159,0.0,-0.23702596,0.9959879,9.770737,-0.023823744,-0.034208454,-0.07391469,-44.368004,-33.262,-46.329002
1745691303278,-13.917757860004018,3.868958857636379,0.0,-0.3854665,1.0821792,9.952697,-0.047647487,-0.058643065,-0.0580322,-43.851,-31.887001,-44.850002
1745691303288,-13.914152325429827,3.868923964365669,0.0,-0.4357447,1.1444284,10.158598,-0.077579886,-0.08246681,-0.02443461,-43.949,-31.571001,-45.706
1745691303299,-13.910186237398216,3.8688855817678887,0.0,-0.38067806,1.1420342,10.28549,-0.10873401,-0.04520403,0.009773844,-43.856003,-32.622,-46.539
1745691303310,-13.906220149366606,3.8688471991701086,0.0,-0.45489833,1.1324574,10.606314,-0.15821409,0.005497787,0.05375614,-44.458004,-31.686,-43.911003
1745691303320,-13.902614614792414,3.868812305899399,0.0,-0.48362875,1.1085154,10.905589,-0.18203785,0.015271631,0.08368854,-44.369003,-32.95,-43.572002
1745691303331,-13.898648526760805,3.8687739233016183,0.0,-0.36870706,1.0654198,11.334151,-0.172264,0.020158553,0.11178834,-44.263,-32.734,-45.909
1745691303341,-13.895042992186614,3.868739030030909,0.0,-0.272939,1.0271125,11.602302,-0.10751228,0.0012217305,0.1142318,-44.049004,-31.363,-44.756
1745691303351,-13.891437457612422,3.8687041367601993,0.0,-0.20111294,0.9792285,11.688493,-0.040927973,-0.031154128,0.10445796,-44.260002,-32.314003,-44.747
1745691303361,-13.887831923038231,3.86866924348949,0.0,-0.18195933,1.0103531,11.427525,0.061086524,-0.065973446,0.09040806,-44.055,-32.100002,-45.276
1745691303371,-13.88422638846404,3.8686343502187803,0.0,-0.16519992,1.079785,10.881647,0.16615535,-0.08368854,0.08002335,-44.151,-31.677002,-46.559002
1745691303381,-13.88062085388985,3.868599456948071,0.0,-0.14844051,1.1420342,10.168175,0.24373524,-0.096516706,0.064751714,-43.434002,-30.615002,-45.708004
1745691303391,-13.877015319315658,3.8685645636773613,0.0,-0.18914193,1.2401965,9.454702,0.26633725,-0.09590584,0.0580322,-43.840004,-30.935001,-46.774002
1745691303401,-13.873409784741467,3.868529670406652,0.0,-0.14844051,1.3599066,8.971074,0.24923302,-0.07941248,0.06169739,-43.633003,-30.613,-48.261
1745691303412,-13.869443696709856,3.8684912878088715,0.0,-0.1364695,1.4173675,8.698134,0.19547687,-0.050701816,0.061086524,-43.433002,-30.823002,-47.404003
1745691303422,-13.865838162135667,3.868456394538162,0.0,0.059855044,1.5011644,8.559271,0.10751228,-0.04520403,0.06047566,-43.352,-32.723003,-45.146004
1745691303432,-13.862232627561475,3.8684215012674525,0.0,0.15322891,1.4915876,8.63828,0.02321288,-0.028710667,0.04153884,-44.06,-32.628002,-44.844
1745691303444,-13.857905986072446,3.868379629342601,0.0,-0.047884032,1.388637,9.100361,-0.047647487,-0.007330383,0.031154128,-44.862003,-32.002003,-47.101
1745691303456,-13.853579344583416,3.8683377574177498,0.0,-0.04070143,1.3359646,9.646238,-0.10140363,0.017715093,0.018936822,-45.462,-30.853,-45.750004
1745691303466,-13.849973810009224,3.86830286414704,0.0,0.02633622,1.3000516,9.998186,-0.1020145,0.031154128,0.004276057,-43.848003,-31.778002,-46.763
1745691303477,-13.846007721977616,3.8682644815492595,0.0,0.007182605,1.2378023,10.158598,-0.070249505,0.027488936,-0.01282817,-42.937,-31.663002,-45.257004
1745691303489,-13.841681080488586,3.868222609624408,0.0,-0.12689269,1.2186487,10.206482,-0.010995574,0.020158553,-0.020158553,-44.342003,-30.310001,-46.157
1745691303500,-13.837714992456975,3.8681842270266276,0.0,-0.16280572,1.2689269,9.974244,0.052534413,0.018936822,-0.010995574,-43.842003,-31.042002,-45.923
1745691303510,-13.834109457882784,3.8681493337559183,0.0,-0.16759412,1.2904748,9.67018,0.080634214,0.018325957,-6.1086525E-4,-44.357002,-31.997002,-46.452003
1745691303520,-13.830503923308594,3.8681144404852086,0.0,-0.21308395,1.3239936,9.428367,0.08124508,0.020158553,0.007330383,-42.618004,-30.180002,-47.076004
1745691303530,-13.826898388734403,3.8680795472144993,0.0,-0.23942018,1.3431472,9.275137,0.053145275,0.043982297,0.020158553,-43.119003,-29.659002,-47.626003
1745691303541,-13.822932300702792,3.8680411646167188,0.0,-0.1388637,1.3215994,9.25359,-0.005497787,0.055588737,0.034208454,-44.038002,-30.723001,-48.905003
1745691303552,-13.818966212671182,3.868002782018938,0.0,-0.1316811,1.2641385,9.346964,-0.050701816,0.056199603,0.035430185,-43.842003,-31.250002,-47.832
1745691303563,-13.815000124639571,3.867964399421158,0.0,-0.22266077,1.2234371,9.555259,-0.12034045,0.07574729,0.031154128,-45.059002,-31.059002,-45.526
1745691303573,-13.811394590065381,3.8679295061504484,0.0,-0.24660277,1.1875241,9.742006,-0.15515977,0.08124508,0.029321533,-43.837,-30.410002,-45.401
1745691303583,-13.80778905549119,3.8678946128797387,0.0,-0.320823,1.1659763,9.993398,-0.1740966,0.070249505,0.025045475,-44.951004,-30.529001,-46.486004
1745691303593,-13.804183520916999,3.8678597196090294,0.0,-0.4357447,1.1180922,10.45069,-0.14477506,0.06536258,0.03848451,-44.959003,-31.268002,-45.52
1745691303603,-13.800577986342807,3.8678248263383197,0.0,-0.4261679,1.1133038,10.776301,-0.07269296,0.07696902,0.061086524,-45.369003,-31.905,-46.370003
1745691303613,-13.796972451768616,3.8677899330676104,0.0,-0.46208093,1.2138603,10.79785,0.023823744,0.087964594,0.08307768,-44.752003,-31.052002,-47.430004
1745691303623,-13.793366917194426,3.8677550397969007,0.0,-0.62249243,1.2808979,10.618284,0.106901415,0.07696902,0.10567969,-44.15,-31.676,-47.196003
1745691303633,-13.789761382620235,3.8677201465261914,0.0,-0.6799533,1.3359646,10.326192,0.15027285,0.06963864,0.13805555,-43.13,-30.820002,-46.760002
1745691303643,-13.786155848046043,3.8676852532554817,0.0,-0.7015011,1.4030021,10.113108,0.16371189,0.08307768,0.17837265,-43.635002,-30.616001,-46.774002
1745691303655,-13.781829206557013,3.8676433813306303,0.0,-0.7062895,1.4413095,10.0269165,0.15088372,0.1001819,0.20586158,-44.845,-30.000002,-46.704002
1745691303665,-13.778223671982822,3.867608488059921,0.0,-0.81642276,1.448492,10.0029745,0.1282817,0.115453534,0.23640485,-44.446003,-30.523,-45.838
1745691303675,-13.774618137408632,3.8675735947892114,0.0,-0.8379706,1.4652514,10.0029745,0.11362094,0.12705997,0.26206118,-43.937,-30.305002,-45.83
1745691303686,-13.770652049377022,3.867535212191431,0.0,-0.7326257,1.4676456,10.081984,0.106901415,0.13133603,0.27550024,-44.347004,-30.838001,-45.938004
1745691303698,-13.766325407887992,3.8674933402665794,0.0,-0.62728083,1.4796166,10.108319,0.112399206,0.12339478,0.27916542,-45.664,-30.751001,-45.437
1745691303708,-13.7627198733138,3.86745844699587,0.0,-0.59615624,1.4939818,10.072407,0.12522738,0.13316862,0.27366763,-44.95,-30.109001,-44.793003
1745691303719,-13.758753785282192,3.8674200643980896,0.0,-0.5267244,1.5107412,10.04607,0.13622294,0.13439035,0.2669481,-44.95,-30.11,-44.581
1745691303731,-13.754427143793162,3.867378192473238,0.0,-0.50517654,1.697489,9.983821,0.172264,0.13255776,0.26083946,-44.666,-32.424,-45.498
1745691303741,-13.75082160921897,3.8673432992025285,0.0,-0.62488663,1.7836803,9.749189,0.20097467,0.12705997,0.26206118,-45.054,-30.740002,-47.123
1745691303751,-13.74721607464478,3.8673084059318192,0.0,-0.80924016,1.7597382,9.552865,0.21319197,0.115453534,0.27672195,-45.141003,-29.159002,-47.253002
1745691303761,-13.743610540070588,3.8672735126611095,0.0,-0.91219085,1.7501614,9.358934,0.17837265,0.1160644,0.30909783,-45.462,-30.853,-45.750004
1745691303771,-13.740005005496398,3.8672386193904003,0.0,-0.9552865,1.6687586,9.306262,0.09407325,0.15027285,0.34269542,-45.064003,-31.691002,-45.517002
1745691303781,-13.736399470922207,3.8672037261196905,0.0,-0.9528923,1.4389153,9.540894,0.009162978,0.18203785,0.35735616,-45.469,-31.384,-43.513
1745691303792,-13.732433382890596,3.8671653435219104,0.0,-1.043872,1.2018893,9.995792,-0.08735373,0.23151793,0.37018433,-46.074,-31.180002,-44.379
1745691303802,-13.728827848316405,3.8671304502512007,0.0,-1.0199299,0.91219085,10.694899,-0.16065755,0.26267207,0.38728857,-45.577003,-32.331,-45.307003
1745691303813,-13.724861760284794,3.86709206765342,0.0,-0.8499416,0.7565677,11.410766,-0.16920967,0.25045475,0.3903429,-45.058002,-31.162,-46.798
1745691303824,-13.720895672253185,3.8670536850556396,0.0,-0.7110779,0.6607997,11.86327,-0.11362094,0.19303341,0.376293,-44.142002,-30.623001,-46.785004
1745691303835,-13.716929584221575,3.8670153024578595,0.0,-0.7469909,0.5602432,12.050017,0.021991149,0.09040806,0.35369098,-44.836002,-28.945002,-46.506
1745691303845,-13.713324049647383,3.86698040918715,0.0,-0.78050977,0.49320555,11.774684,0.15699236,-0.009162978,0.3555236,-44.739002,-29.367,-45.967003
1745691303856,-13.709357961615773,3.8669420265893693,0.0,-0.7422025,0.50996494,11.137826,0.2773328,-0.080634214,0.35430184,-44.941,-29.473001,-47.244003
1745691303866,-13.705752427041581,3.86690713331866,0.0,-0.62728083,0.5674258,10.333375,0.35613444,-0.09773844,0.35185838,-45.651,-29.379002,-45.775
1745691303877,-13.701786339009972,3.8668687507208794,0.0,-0.557849,0.6464345,9.414001,0.3304781,-0.06841691,0.344528,-45.145,-29.477001,-46.081
1745691303888,-13.697820250978362,3.866830368123099,0.0,-0.35673606,0.5410896,9.13388,0.24801129,-0.018936822,0.33108896,-45.659,-30.432001,-46.716003
1745691303898,-13.69421471640417,3.8667954748523896,0.0,-0.36631286,0.5530606,9.227253,0.14966199,0.047647487,0.30909783,-46.566,-29.812002,-46.426003
1745691303909,-13.69024862837256,3.866757092254609,0.0,-0.34715924,0.50996494,9.55047,0.057421334,0.11178834,0.27488935,-46.766003,-29.291002,-44.633003
1745691303920,-13.686282540340951,3.8667187096568285,0.0,-0.2825158,0.40701428,9.78989,0.014660766,0.13683382,0.23457226,-45.856003,-29.697,-46.731003
1745691303930,-13.68267700576676,3.8666838163861192,0.0,-0.34237084,0.3878607,9.9790325,0.0018325958,0.14721853,0.19181168,-46.861004,-28.45,-44.010002
1745691303940,-13.679071471192568,3.8666489231154095,0.0,-0.4237737,0.38307226,10.04607,0.018936822,0.16065755,0.15882497,-46.767002,-29.396002,-44.844
1745691303950,-13.675465936618377,3.8666140298447003,0.0,-0.5315128,0.44532153,9.900024,0.052534413,0.16187929,0.13561209,-47.787003,-30.044,-43.583
1745691303961,-13.671499848586766,3.8665756472469197,0.0,-0.6823475,0.521936,9.665392,0.07941248,0.15821409,0.12950343,-46.876003,-30.240002,-45.047
1745691303972,-13.667533760555157,3.866537264649139,0.0,-0.7661445,0.60812724,9.437943,0.08552113,0.1301143,0.1337795,-46.658,-28.759,-46.337
1745691303983,-13.663567672523547,3.8664988820513586,0.0,-0.8331822,0.7015011,9.334992,0.08246681,0.10751228,0.14660765,-47.372,-29.191002,-46.028004
1745691303994,-13.659601584491936,3.866460499453578,0.0,-0.79008657,0.7302315,9.258378,0.06963864,0.0842994,0.16187929,-47.276,-29.614002,-44.640003
1745691304004,-13.655996049917745,3.866425606182869,0.0,-0.89782566,0.7398083,9.224859,0.04153884,0.05681047,0.1704314,-46.965004,-29.184002,-47.081
1745691304015,-13.652029961886134,3.8663872235850882,0.0,-0.9672575,0.7661445,9.26556,0.023823744,0.040927973,0.17165314,-46.969,-29.397001,-45.592003
1745691304026,-13.648063873854525,3.8663488409873077,0.0,-0.9504981,0.7565677,9.287108,0.01282817,0.050701816,0.17715092,-46.052002,-28.858002,-45.685
1745691304037,-13.644097785822915,3.866310458389527,0.0,-0.92655605,0.7733272,9.406818,0.0061086523,0.064751714,0.17837265,-46.659,-28.969002,-47.184002
1745691304047,-13.640492251248723,3.866275565118818,0.0,-0.878672,0.81642276,9.452309,0.01160644,0.08857546,0.17104226,-47.27,-29.398,-47.828003
1745691304058,-13.636526163217113,3.8662371825210373,0.0,-0.90261406,0.80205756,9.380483,0.022602014,0.10323623,0.16187929,-46.761,-28.867,-45.913002
1745691304068,-13.632920628642923,3.866202289250328,0.0,-1.043872,0.79966336,9.299079,0.013439035,0.12339478,0.15332718,-46.151,-28.752,-46.644
1745691304079,-13.628954540611312,3.8661639066525475,0.0,-1.1755531,0.82599956,9.196129,-0.014049901,0.13927728,0.15149458,-46.657,-28.863,-47.822002
1745691304090,-13.624988452579702,3.866125524054767,0.0,-1.1300632,0.80684596,9.155427,-0.048258353,0.13683382,0.15149458,-47.572002,-29.296001,-48.261
1745691304100,-20.755226698538735,4.1698025547544155,0.0,-1.0726024,0.7445967,9.217676,-0.0983493,0.10873401,0.14294247,-45.647003,-28.956001,-46.63
1745691304111,-20.749950744404213,4.1697761757208305,0.0,-1.0366893,0.6991069,9.370906,-0.14782938,0.09162979,0.1301143,-46.459003,-28.970001,-45.055
1745691304122,-20.74467479026969,4.1697497966872445,0.0,-1.0271125,0.6607997,9.64145,-0.1966986,0.07391469,0.12156218,-47.163002,-28.347002,-44.867
1745691304132,-20.739878468329216,4.169725815747622,0.0,-1.0414777,0.61770403,9.900024,-0.23273966,0.04886922,0.10934488,-46.555,-28.756,-47.609
1745691304142,-20.735082146388745,4.169701834807999,0.0,-1.0342951,0.5674258,10.187328,-0.24129178,0.034208454,0.10995574,-46.561,-29.180002,-46.329002
1745691304152,-20.73028582444827,4.169677853868376,0.0,-1.0366893,0.5770026,10.515334,-0.19975294,0.016493361,0.12705997,-46.559002,-29.074001,-46.543003
1745691304162,-20.725489502507795,4.169653872928754,0.0,-1.0366893,0.60573304,10.740389,-0.14966199,0.01282817,0.14660765,-46.555,-28.547,-46.656002
1745691304173,-20.720213548373273,4.169627493895168,0.0,-0.9624691,0.7398083,10.630256,-0.043982297,0.029321533,0.16982053,-46.95,-27.497002,-47.317
1745691304183,-20.7154172264328,4.169603512955545,0.0,-0.9624691,0.78769237,10.4171715,0.037873644,0.0018325958,0.18509217,-46.845,-27.074001,-47.002003
1745691304194,-20.710141272298277,4.16957713392196,0.0,-1.0079589,0.8834604,9.97185,0.08246681,-0.02687807,0.19608775,-47.753002,-26.664001,-47.24
1745691304204,-20.7053449503578,4.169553152982337,0.0,-0.9840169,0.9768343,9.629479,0.09162979,-0.045814894,0.20525073,-47.459003,-27.819002,-47.642002
1745691304215,-20.70006899622328,4.169526773948752,0.0,-0.92655605,1.0295067,9.399636,0.07391469,-0.05681047,0.20891592,-46.453003,-28.649002,-47.608
1745691304226,-20.694793042088758,4.1695003949151666,0.0,-0.8858546,1.0773908,9.244013,0.03359759,-0.043982297,0.2003638,-46.557003,-28.863,-46.758003
1745691304237,-20.689517087954236,4.1694740158815815,0.0,-0.7781156,1.1252748,9.224859,-0.007330383,-0.010995574,0.19425514,-46.762,-28.973001,-45.593002
1745691304247,-20.68472076601376,4.169450034941958,0.0,-0.7589619,1.0869676,9.251195,-0.049480084,-0.0030543262,0.16493362,-46.344,-27.804,-47.618004
1745691304259,-20.678965179685193,4.1694212578144105,0.0,-0.9648633,0.9840169,9.483433,-0.08307768,0.0036651916,0.13683382,-46.243004,-27.699001,-46.661003
1745691304269,-20.674168857744718,4.169397276874788,0.0,-0.9600749,0.91937345,9.78989,-0.10873401,0.01282817,0.12889257,-47.465004,-28.453001,-46.890003
1745691304279,-20.669372535804243,4.169373295935165,0.0,-0.8738836,0.90500826,10.022128,-0.13255776,0.021991149,0.10262536,-47.259003,-27.924002,-46.468002
1745691304291,-20.663616949475674,4.169344518807617,0.0,-0.9792285,0.82360536,10.268731,-0.14721853,0.022602014,0.08002335,-47.258003,-27.819002,-46.364002
1745691304302,-20.658340995341153,4.169318139774032,0.0,-1.0055647,0.7757214,10.469844,-0.16310102,0.026267206,0.06414085,-47.053,-26.979002,-41.911003
1745691304312,-20.653544673400678,4.1692941588344095,0.0,-0.9888053,0.80205756,10.7116585,-0.17287487,0.042760566,0.039095376,-46.355003,-28.444002,-43.361004
1745691304324,-20.647789087072105,4.169265381706862,0.0,-0.8810662,0.80924016,10.84334,-0.1563815,0.051923547,0.015882496,-48.38,-28.782001,-46.481003
1745691304336,-20.642033500743537,4.169236604579314,0.0,-0.8858546,0.830788,10.836157,-0.10751228,0.032986723,-0.01038471,-47.256,-27.713001,-46.684002
1745691304346,-20.637237178803062,4.169212623639691,0.0,-0.866701,0.90979666,10.630256,-0.056199603,0.018325957,-0.029321533,-48.164,-27.302002,-47.134003
1745691304356,-20.632440856862587,4.169188642700068,0.0,-0.85473,0.9504981,10.412383,-0.02565634,0.014049901,-0.04153884,-48.370003,-27.935001,-48.617
1745691304367,-20.627164902728065,4.169162263666483,0.0,-0.8810662,1.0271125,10.175357,0.017104227,0.021991149,-0.055588737,-48.069004,-28.143002,-47.97
1745691304377,-20.62236858078759,4.16913828272686,0.0,-0.92176765,1.1085154,9.794679,0.03726278,0.01160644,-0.06719518,-47.361004,-28.344002,-48.27
1745691304388,-20.61709262665307,4.169111903693275,0.0,-1.0055647,1.1683705,9.543288,0.021991149,0.0036651916,-0.073303826,-47.569004,-28.875002,-47.736004
1745691304398,-20.612296304712594,4.169087922753652,0.0,-1.1468226,1.1875241,9.437943,-0.02076942,6.1086525E-4,-0.062308256,-46.958004,-28.133001,-45.184002
1745691304409,-20.607020350578072,4.169061543720066,0.0,-0.9576807,1.2545617,9.452309,-0.05375614,-0.009773844,-0.059253927,-46.446003,-27.806002,-47.195004
1745691304420,-20.60174439644355,4.169035164686481,0.0,-0.90021986,1.2425907,9.595961,-0.081855945,-0.01038471,-0.065973446,-46.138,-27.276001,-46.665
1745691304430,-20.596948074503075,4.169011183746859,0.0,-1.0295067,1.2258313,9.792285,-0.08857546,-0.009773844,-0.069027774,-47.164,-28.661001,-45.925003
1745691304440,-20.592151752562604,4.1689872028072354,0.0,-1.091756,1.2018893,9.969456,-0.07513642,-0.025045475,-0.06352998,-46.754,-28.233002,-46.984
1745691304450,-20.58735543062213,4.168963221867613,0.0,-1.0486604,1.1875241,9.938332,-0.049480084,-0.051923547,-0.06719518,-47.561,-27.822,-47.007004
1745691304460,-20.582559108681654,4.1689392409279895,0.0,-0.9576807,1.1540052,9.840169,-0.026267206,-0.065973446,-0.07391469,-48.478,-28.362001,-46.277
1745691304470,-20.57776278674118,4.168915259988367,0.0,-0.82360536,1.1228806,9.696517,-0.021991149,-0.084910266,-0.09101892,-47.052002,-27.812002,-48.801003
1745691304480,-20.572966464800704,4.1688912790487445,0.0,-0.7541735,1.1085154,9.610326,-0.03848451,-0.08735373,-0.11056661,-46.954002,-28.024002,-47.522003
1745691304490,-20.56817014286023,4.168867298109121,0.0,-0.770933,1.067814,9.622296,-0.06658431,-0.08368854,-0.13133603,-46.647003,-27.807001,-48.261
1745691304500,-20.563373820919754,4.1688433171694985,0.0,-0.82599956,1.0486604,9.816227,-0.09040806,-0.07819075,-0.1459968,-47.355003,-27.816002,-49.127003
1745691304510,-20.55857749897928,4.168819336229875,0.0,-0.7350199,1.0989386,9.964667,-0.081855945,-0.08674286,-0.15515977,-47.465004,-28.557001,-48.057003
1745691304520,-20.553781177038807,4.168795355290253,0.0,-0.7230489,1.115698,9.964667,-0.05009095,-0.09896017,-0.16737708,-47.271004,-29.399002,-46.979004
1745691304530,-20.548984855098333,4.168771374350629,0.0,-0.7302315,1.151611,9.847352,-0.017715093,-0.11789699,-0.17104226,-47.877003,-29.092001,-46.253002
1745691304541,-20.54370890096381,4.168744995317044,0.0,-0.7445967,1.1731589,9.706094,0.002443461,-0.12767084,-0.16676621,-48.382004,-28.889002,-45.949
1745691304551,-20.538912579023336,4.168721014377422,0.0,-0.6871359,1.2018893,9.627085,0.009162978,-0.13622294,-0.16554448,-48.274002,-28.253002,-46.699
1745691304561,-20.53411625708286,4.168697033437798,0.0,-0.61530983,1.2497733,9.531317,0.0036651916,-0.12950343,-0.16310102,-47.971,-28.354002,-47.009003
1745691304571,-20.529319935142386,4.168673052498176,0.0,-0.5746084,1.2617443,9.531317,-0.014049901,-0.12339478,-0.17715092,-47.458004,-27.715002,-47.113003
1745691304581,-20.52452361320191,4.168649071558552,0.0,-0.62009823,1.2545617,9.607931,-0.030543262,-0.12950343,-0.1881465,-47.662003,-27.718,-46.693
1745691304591,-20.519727291261436,4.16862509061893,0.0,-0.58418524,1.2282255,9.701305,-0.040927973,-0.16065755,-0.20891592,-48.076004,-28.674002,-46.051003
1745691304601,-20.51493096932096,4.168601109679306,0.0,-0.5793968,1.1971009,9.835381,-0.057421334,-0.19425514,-0.24007004,-47.472004,-29.296001,-47.303
1745691304611,-20.510134647380486,4.168577128739684,0.0,-0.5267244,1.1085154,9.983821,-0.065973446,-0.22418754,-0.2602286,-46.975002,-30.449001,-47.595
1745691304622,-20.504858693245964,4.168550749706099,0.0,-0.48362875,1.0821792,10.096349,-0.06841691,-0.24312437,-0.2883284,-47.579002,-29.617,-45.177002
1745691304633,-20.499582739111442,4.168524370672513,0.0,-0.49081135,1.1085154,10.220847,-0.06963864,-0.22907446,-0.3231477,-47.664,-28.034,-47.007004
1745691304643,-20.494786417170967,4.16850038973289,0.0,-0.50038815,1.0965444,10.33098,-0.061086524,-0.19181168,-0.33475417,-47.06,-28.343,-46.246002
1745691304655,-20.4890308308424,4.168471612605343,0.0,-0.521936,1.1109096,10.508151,-0.03481932,-0.15821409,-0.3378085,-46.354004,-28.650002,-46.119003
1745691304666,-20.483754876707877,4.168445233571758,0.0,-0.5267244,1.2114661,10.582372,0.029321533,-0.14660765,-0.34574974,-47.276,-29.719002,-44.957
1745691304676,-20.478958554767402,4.168421252632134,0.0,-0.59615624,1.2761095,10.520123,0.089186326,-0.15699236,-0.3481932,-46.750004,-27.706001,-46.248
1745691304687,-20.47368260063288,4.168394873598549,0.0,-0.62488663,1.3263878,10.3214035,0.13316862,-0.18448131,-0.3494149,-46.552002,-28.127,-45.600002
1745691304697,-20.468886278692406,4.168370892658927,0.0,-0.62009823,1.3503298,10.081984,0.15271631,-0.22724187,-0.35796702,-46.458004,-29.072,-46.965004
1745691304707,-20.46408995675193,4.168346911719303,0.0,-0.6392518,1.2641385,9.885659,0.13744467,-0.25595254,-0.36896262,-47.058002,-28.341002,-47.945004
1745691304719,-20.458334370423362,4.168318134591756,0.0,-0.61052144,1.1444284,9.902418,0.076358154,-0.258396,-0.38606682,-47.067,-29.186,-46.659
1745691304729,-20.453538048482887,4.168294153652133,0.0,-0.48362875,1.1085154,10.108319,0.021380283,-0.24556783,-0.40439278,-46.553,-28.023,-44.434002
1745691304740,-20.448262094348365,4.168267774618548,0.0,-0.2681506,1.0510546,10.431537,-0.02321288,-0.18570304,-0.43982297,-46.056004,-29.384,-45.996002
1745691304751,-20.442986140213844,4.168241395584963,0.0,-0.15322891,1.0366893,10.66138,-0.025045475,-0.12950343,-0.47342056,-45.747,-28.644001,-44.832
1745691304761,-20.43818981827337,4.16821741464534,0.0,-0.20350714,0.9959879,10.771513,0.0030543262,-0.108123146,-0.50579643,-45.752003,-29.171001,-44.931004
1745691304771,-20.433393496332894,4.168193433705717,0.0,-0.2633622,0.94570965,10.637438,0.06780604,-0.108123146,-0.52106804,-45.459003,-30.328001,-44.483
1745691304781,-20.428597174392422,4.168169452766094,0.0,-0.272939,1.0007763,10.390836,0.108123146,-0.14477506,-0.5314528,-44.949,-30.108002,-45.537003
1745691304791,-20.423800852451947,4.168145471826471,0.0,-0.1388637,0.9744401,10.084377,0.116675265,-0.15760323,-0.54061574,-44.638,-29.469002,-47.025
1745691304801,-20.419004530511472,4.168121490886848,0.0,0.007182605,0.89543146,9.892841,0.10934488,-0.14782938,-0.56138515,-46.865,-29.184002,-46.336002
1745691304811,-20.414208208570997,4.168097509947225,0.0,-0.20350714,0.85473,10.041282,0.093462385,-0.14049901,-0.5925393,-45.750004,-28.960001,-44.827003
1745691304821,-20.409411886630522,4.168073529007602,0.0,-0.24420857,0.7541735,10.228029,0.09773844,-0.13805555,-0.59742624,-44.852,-30.425001,-44.68
1745691304832,-20.404135932496,4.168047149974017,0.0,-0.20350714,0.6607997,10.395624,0.13072516,-0.1160644,-0.6017023,-45.867,-30.963001,-46.182003
1745691304843,-20.39885997836148,4.168020770940432,0.0,-0.25857377,0.60812724,10.522516,0.19181168,-0.06719518,-0.5992588,-44.539,-29.576002,-45.322002
1745691304854,-20.393584024226957,4.167994391906847,0.0,-0.29927522,0.533907,10.477027,0.23762658,-0.06352998,-0.6072,-46.065002,-30.230001,-45.029003
1745691304864,-20.388787702286482,4.167970410967223,0.0,-0.36870706,0.51954174,10.292673,0.27916542,-0.07513642,-0.6200282,-45.868004,-30.859001,-45.228
1745691304874,-20.383991380346007,4.167946430027601,0.0,-0.33997664,0.5291186,10.031705,0.30176744,-0.09773844,-0.63713247,-44.550003,-30.632002,-44.246002
1745691304884,-20.379195058405532,4.167922449087977,0.0,-0.35434186,0.545878,9.801862,0.28527406,-0.14538592,-0.6591236,-44.549004,-30.423002,-43.293003
1745691304894,-20.374398736465057,4.167898468148355,0.0,-0.35913026,0.58897364,9.653421,0.26083946,-0.16982053,-0.6719518,-44.654003,-30.846,-43.502003
1745691304904,-20.369602414524582,4.167874487208731,0.0,-0.30166942,0.557849,9.639056,0.23151793,-0.16371189,-0.6780604,-44.564003,-32.109,-43.589
1745691304915,-20.36432646039006,4.167848108175146,0.0,-0.24420857,0.533907,9.742006,0.21013765,-0.15027285,-0.6805039,-45.166,-31.485,-43.505
1745691304926,-20.35905050625554,4.167821729141561,0.0,-0.24420857,0.50038815,9.76116,0.19425514,-0.10934488,-0.6817256,-45.064003,-31.482002,-44.352
1745691304936,-20.354254184315064,4.167797748201939,0.0,-0.16519992,0.45010993,9.703699,0.17104226,-0.08979719,-0.68294734,-44.354004,-31.472002,-44.973003
1745691304946,-20.349457862374592,4.167773767262315,0.0,-0.06464344,0.4213795,9.742006,0.14294247,-0.07574729,-0.689056,-44.569,-32.95,-45.488003
1745691304956,-20.344661540434117,4.167749786322693,0.0,0.04070143,0.44532153,9.993398,0.108123146,-0.07696902,-0.71837753,-44.552002,-30.843002,-44.349003
1745691304966,-20.339865218493642,4.1677258053830695,0.0,0.1364695,0.3878607,10.218452,0.09896017,-0.09407325,-0.7483099,-44.652,-30.739002,-44.353
1745691304977,-20.33458926435912,4.167699426349484,0.0,0.1436521,0.33518824,10.295067,0.10934488,-0.12705997,-0.7825184,-43.231003,-30.612001,-45.703003
1745691304989,-20.32883367803055,4.167670649221937,0.0,0.038307227,0.33997664,10.146626,0.11911872,-0.16493362,-0.81183994,-43.74,-30.831001,-45.181004
1745691305001,-20.32307809170198,4.167641872094389,0.0,0.062249243,0.32800564,9.895236,0.11484267,-0.17165314,-0.8216137,-42.941,-31.981,-44.297
1745691305011,-20.318281769761505,4.167617891154767,0.0,0.19871874,0.3878607,9.67018,0.09040806,-0.16371189,-0.82894415,-42.945004,-32.612003,-45.457
1745691305022,-20.313005815626983,4.167591512121181,0.0,0.21787235,0.39504328,9.552865,0.047036625,-0.1459968,-0.84971356,-41.233,-33.853,-46.144
1745691305032,-20.30820949368651,4.167567531181558,0.0,0.16519992,0.35913026,9.536105,0.022602014,-0.12339478,-0.86559606,-41.842003,-33.863003,-45.202003
1745691305042,-20.303413171746037,4.167543550241936,0.0,0.15562311,0.34476504,9.557653,0.02687807,-0.12522738,-0.8680395,-43.345,-31.881002,-44.202003
1745691305053,-20.29813721761151,4.16751717120835,0.0,0.16759412,0.37828386,9.519346,0.03970624,-0.14660765,-0.8772025,-42.842003,-32.087,-43.232002
1745691305063,-20.29334089567104,4.167493190268727,0.0,0.22266077,0.39504328,9.368511,0.053145275,-0.16798794,-0.8765916,-40.417004,-32.897003,-43.803
1745691305074,-20.28806494153652,4.167466811235142,0.0,0.29927522,0.37349546,9.210494,0.057421334,-0.21868975,-0.88270026,-41.126003,-33.115,-45.409
1745691305085,-20.282788987401993,4.167440432201557,0.0,0.37828386,0.37828386,9.030929,0.03359759,-0.27488935,-0.8857546,-41.534,-33.123,-43.613003
1745691305097,-20.277033401073425,4.16741165507401,0.0,0.48602295,0.35673606,8.954314,0.004886922,-0.30665436,-0.89736104,-40.114002,-32.893,-43.372
1745691305107,-20.27223707913295,4.167387674134386,0.0,0.62009823,0.320823,8.889671,-0.044593163,-0.3023783,-0.91324353,-40.823,-32.694,-41.904003
1745691305118,-20.266961124998428,4.167361295100801,0.0,0.7230489,0.25617957,8.820239,-0.09590584,-0.28405234,-0.9388999,-38.398003,-33.504,-42.263
1745691305128,-20.262164803057953,4.167337314161178,0.0,0.6440403,0.2633622,8.911219,-0.16126843,-0.26328292,-0.9669997,-38.403004,-34.031002,-42.574
1745691305139,-20.25688884892343,4.167310935127593,0.0,0.60573304,0.23223756,9.136273,-0.19792034,-0.2406809,-0.9773844,-39.717003,-33.941,-43.879
1745691305150,-20.25161289478891,4.167284556094008,0.0,0.81881696,0.2681506,9.409213,-0.22296582,-0.21868975,-1.0067059,-38.509003,-34.56,-42.463
1745691305160,-20.246816572848434,4.167260575154385,0.0,0.94092125,0.35194764,9.617508,-0.23640485,-0.22479841,-1.0531317,-38.913002,-34.355003,-42.156002
1745691305171,-20.241540618713913,4.167234196120799,0.0,0.9576807,0.30645782,9.916783,-0.24007004,-0.226631,-1.0726794,-38.916,-34.985,-44.059002
1745691305182,-20.23626466457939,4.167207817087214,0.0,1.0271125,0.30166942,10.230424,-0.23823744,-0.24556783,-1.1032226,-38.101,-34.343002,-42.882004
1745691305192,-20.90706073382121,4.825859327069571,0.0,0.9983821,0.31603462,10.472239,-0.23823744,-0.27122417,-1.128879,-37.794003,-34.021,-43.516003
1745691305203,-20.90210809265894,4.825857533272844,0.0,1.0726024,0.33039984,10.6877165,-0.23090707,-0.28221974,-1.1484267,-37.387,-33.806,-43.192
1745691305215,-20.896705211391005,4.825855576403688,0.0,1.1372458,0.33758244,10.795456,-0.22113322,-0.28160888,-1.1814134,-37.502003,-35.285,-42.324
1745691305225,-20.89220281033439,4.825853945679391,0.0,1.1061212,0.3854665,10.802638,-0.22296582,-0.27550024,-1.210124,-36.691,-35.169003,-41.883003
1745691305235,-20.887700409277777,4.825852314955094,0.0,1.0821792,0.46926352,10.828975,-0.22418754,-0.25900686,-1.2266175,-37.092003,-34.648003,-41.687
1745691305246,-20.882747768115504,4.825850521158367,0.0,0.91458505,0.48602295,10.912771,-0.22540927,-0.2321288,-1.2425,-37.803,-34.972,-42.335003
1745691305256,-20.87824536705889,4.82584889043407,0.0,0.6775591,0.48362875,10.960655,-0.21930063,-0.19425514,-1.2363913,-36.298,-36.43,-41.219
1745691305268,-20.872842485790954,4.825846933564915,0.0,0.5626374,0.5315128,11.085154,-0.2125811,-0.1301143,-1.2174544,-35.586002,-36.312,-42.904003
1745691305278,-20.868340084734342,4.825845302840618,0.0,0.581791,0.5554548,11.274296,-0.19120082,-0.06658431,-1.196685,-36.188004,-35.792,-43.562
1745691305288,-20.86383768367773,4.825843672116321,0.0,0.59855044,0.58897364,11.463438,-0.15271631,-0.03604105,-1.1942415,-36.687,-34.851,-43.162003
1745691305299,-20.858885042515457,4.8258418783195935,0.0,0.61770403,0.62249243,11.556811,-0.08979719,-0.02076942,-1.1997393,-35.666,-33.993,-43.363003
1745691305309,-20.854382641458844,4.825840247595297,0.0,0.51235914,0.63206923,11.482592,0.007941248,-0.058643065,-1.2156218,-34.855003,-33.982002,-43.451
1745691305319,-20.849880240402232,4.825838616871,0.0,0.50038815,0.6967127,11.219229,0.09896017,-0.10934488,-1.2315043,-33.758003,-36.075,-44.353
1745691305329,-20.845377839345616,4.825836986146703,0.0,0.48602295,0.7445967,10.752359,0.16676621,-0.16798794,-1.246776,-33.559002,-36.493,-44.768
1745691305339,-20.840875438289004,4.825835355422406,0.0,0.40462008,0.81402856,10.266336,0.23457226,-0.22724187,-1.2644911,-33.755,-35.34,-42.24
1745691305349,-20.83637303723239,4.825833724698109,0.0,0.37349546,0.8475474,9.737218,0.2846632,-0.27183503,-1.2718215,-32.433002,-35.108,-43.912003
1745691305359,-20.83187063617578,4.825832093973812,0.0,0.4213795,0.91219085,9.296685,0.28588495,-0.2938262,-1.2687671,-32.447002,-36.585003,-43.892002
1745691305369,-20.827368235119167,4.825830463249515,0.0,0.47644615,0.94810385,9.057265,0.25595254,-0.2779437,-1.2705997,-31.732002,-36.256,-45.792004
1745691305380,-20.822415593956894,4.825828669452789,0.0,0.7302315,0.9600749,8.918402,0.18692477,-0.226631,-1.2705997,-31.525002,-35.727,-45.264004
1745691305390,-20.81791319290028,4.825827038728492,0.0,0.8714894,0.92895025,9.090784,0.08857546,-0.16249016,-1.2950343,-32.144,-36.583,-42.505
1745691305400,-20.813410791843665,4.825825408004195,0.0,0.8619126,0.8331822,9.452309,0.028710667,-0.14110987,-1.310306,-30.922,-35.829002,-42.382004
1745691305413,-20.80755767047007,4.825823288062609,0.0,0.89303726,0.7062895,10.031705,-0.026267206,-0.15210545,-1.3347405,-29.701002,-35.388,-44.06
1745691305423,-20.80305526941346,4.825821657338312,0.0,0.9744401,0.545878,10.474632,-0.019547688,-0.18203785,-1.3628404,-30.332,-38.033,-43.506
1745691305433,-20.798552868356843,4.825820026614015,0.0,1.0486604,0.46447513,10.6158905,0.022602014,-0.20708331,-1.3842206,-30.322,-36.872,-43.947002
1745691305445,-20.79314998708891,4.825818069744859,0.0,1.0893618,0.35434186,10.749966,0.0842994,-0.21624629,-1.4068227,-28.696001,-36.428,-44.235
1745691305456,-20.788197345926637,4.8258162759481324,0.0,1.091756,0.2705448,10.673351,0.15515977,-0.21685717,-1.4251486,-28.799002,-36.223003,-41.586002
1745691305466,-20.783694944870025,4.8258146452238355,0.0,1.0654198,0.22505496,10.481815,0.19914207,-0.20769419,-1.4416419,-28.091002,-36.319,-41.462
1745691305477,-20.778742303707748,4.825812851427108,0.0,1.0462662,0.21787235,10.314221,0.21135938,-0.21135938,-1.4520267,-27.791002,-36.945004,-42.827003
1745691305487,-20.774239902651136,4.825811220702811,0.0,1.0199299,0.21547815,10.266336,0.21319197,-0.21868975,-1.4587462,-26.988,-37.778004,-43.116
1745691305497,-20.769737501594523,4.8258095899785145,0.0,0.9624691,0.21308395,10.225636,0.19730948,-0.20952678,-1.4697418,-27.087002,-37.777,-44.605003
1745691305509,-20.764334620326586,4.825807633109359,0.0,1.0199299,0.21547815,10.18254,0.18325958,-0.20341812,-1.4764613,-25.977001,-38.393,-45.315002
1745691305519,-20.759832219269974,4.825806002385062,0.0,0.9840169,0.2777274,10.158598,0.17898351,-0.2003638,-1.4874569,-26.082,-38.086002,-40.543003
1745691305529,-20.75532981821336,4.825804371660765,0.0,0.8571242,0.35434186,10.067618,0.18387043,-0.18570304,-1.4850134,-26.177002,-37.558002,-41.614002
1745691305539,-20.75082741715675,4.825802740936468,0.0,0.6991069,0.45010993,9.950302,0.1881465,-0.17592919,-1.4813483,-24.851002,-36.591003,-42.023003
1745691305549,-20.746325016100137,4.825801110212171,0.0,0.59615624,0.47644615,9.78989,0.18387043,-0.18753563,-1.46852,-23.437,-37.098003,-42.515003
1745691305559,-20.741822615043525,4.825799479487874,0.0,0.4261679,0.48362875,9.615114,0.172264,-0.20830505,-1.4624114,-22.833,-37.304,-40.694
1745691305569,-20.737320213986912,4.825797848763577,0.0,0.29209262,0.50278234,9.466674,0.13622294,-0.22540927,-1.455081,-23.243002,-37.732002,-40.272003
1745691305579,-20.7328178129303,4.82579621803928,0.0,0.16759412,0.47884035,9.414001,0.07880162,-0.22296582,-1.4575244,-23.443,-37.522003,-40.917004
1745691305590,-20.727865171768023,4.825794424242553,0.0,0.011971008,0.4309563,9.457097,0.020158553,-0.19486602,-1.4648548,-22.226002,-37.401,-40.997
1745691305601,-20.72291253060575,4.825792630445827,0.0,-0.12928689,0.4285621,9.665392,-0.047036625,-0.1563815,-1.4691309,-20.685001,-35.373,-43.434002
1745691305611,-20.718410129549138,4.82579099972153,0.0,-0.24899697,0.4357447,9.952697,-0.06536258,-0.12461651,-1.4660766,-21.294,-35.487003,-43.127003
1745691305623,-20.7130072482812,4.8257890428523735,0.0,-0.36631286,0.4261679,10.022128,-0.039095376,-0.09896017,-1.4648548,-21.408,-36.755,-42.262
1745691305635,-20.707604367013268,4.825787085983218,0.0,-0.47644615,0.48602295,9.923966,0.015271631,-0.093462385,-1.4563028,-19.173,-36.091003,-42.965
1745691305646,-20.702651725850995,4.825785292186491,0.0,-0.34476504,0.557849,9.665392,0.07574729,-0.103847094,-1.4459181,-18.567001,-36.190002,-42.100002
1745691305656,-20.69814932479438,4.825783661462194,0.0,-0.2681506,0.6368576,9.332599,0.12034045,-0.14721853,-1.4581354,-18.668001,-36.087,-41.467003
1745691305666,-20.693646923737766,4.825782030737897,0.0,-0.48602295,0.6799533,9.153033,0.12644911,-0.16187929,-1.4715744,-17.947,-34.811,-41.681004
1745691305676,-20.689144522681154,4.8257804000136,0.0,-0.58657944,0.7422025,9.105149,0.118507855,-0.14844026,-1.4703526,-17.847,-35.021,-41.995003
1745691305687,-20.68419188151888,4.825778606216874,0.0,-0.6895301,0.7733272,9.14585,0.1020145,-0.09773844,-1.459968,-17.654001,-36.177002,-42.717003
1745691305697,-20.67968948046227,4.825776975492577,0.0,-0.8451532,0.8762778,9.215282,0.069027774,-0.0030543262,-1.4404203,-16.735,-35.426003,-42.920002
1745691305708,-20.674736839299992,4.8257751816958505,0.0,-1.0199299,0.92176765,9.313444,0.03481932,0.084910266,-1.4184291,-16.220001,-34.366,-42.18
1745691305719,-20.66978419813772,4.825773387899123,0.0,-1.1540052,0.878672,9.651027,0.013439035,0.14966199,-1.3848315,-16.425001,-34.58,-41.969
1745691305729,-20.665281797081107,4.825771757174826,0.0,-1.0821792,0.90021986,10.036493,0.010995574,0.17470746,-1.3591752,-14.913001,-35.403,-42.136
1745691305740,-20.660329155918834,4.8257699633781,0.0,-1.0055647,0.92895025,10.448297,0.05009095,0.118507855,-1.3494014,-13.984,-33.492,-42.567
1745691305751,-20.655376514756558,4.825768169581373,0.0,-1.103727,0.90261406,10.546458,0.10567969,0.04153884,-1.3500122,-14.093,-34.442,-42.662003
1745691305761,-20.650874113699945,4.825766538857076,0.0,-1.2808979,0.92176765,10.429143,0.15943582,-0.030543262,-1.3139712,-14.487,-33.391003,-44.066
1745691305771,-20.646371712643333,4.825764908132779,0.0,-1.283292,0.94331545,10.120291,0.17715092,-0.064751714,-1.287093,-13.688001,-34.645,-44.243004
1745691305781,-20.64186931158672,4.825763277408482,0.0,-1.3072342,0.9768343,9.8042555,0.17348573,-0.076358154,-1.2363913,-11.657001,-33.986,-43.676003
1745691305791,-20.63736691053011,4.825761646684185,0.0,-1.2904748,0.9792285,9.564836,0.11911872,-0.07819075,-1.1661417,-12.062,-33.887,-43.049004
1745691305801,-20.632864509473496,4.825760015959889,0.0,-1.13964,0.89303726,9.603143,0.029321533,-0.076358154,-1.1074986,-12.555,-32.209,-41.597
1745691305811,-20.628362108416884,4.825758385235592,0.0,-0.7469909,0.7326257,9.765948,-0.07696902,-0.080634214,-1.0506883,-11.446,-32.93,-42.624
1745691305830,-20.61980754640932,4.825755286859428,0.0,-0.4429273,0.6560113,9.991004,-0.1704314,-0.076358154,-1.024421,-11.14,-32.715,-42.833
1745691305840,-20.615305145352707,4.825753656135131,0.0,0.19632454,0.2896984,11.123461,-0.28588495,-0.043982297,-1.0622946,-11.043,-33.241,-42.611004
1745691305850,-20.61080274429609,4.825752025410834,0.0,0.06703765,0.25378537,11.563994,-0.23884831,-0.040927973,-1.0977248,-9.620001,-32.695,-42.587
1745691305860,-20.60630034323948,4.825750394686537,0.0,-0.08140286,0.33279404,11.650186,-0.116675265,-0.044593163,-1.1258247,-9.917001,-31.855001,-42.711002
1745691305870,-20.601797942182866,4.82574876396224,0.0,-0.23702596,0.3854665,11.319786,0.050701816,-0.04337143,-1.1355985,-8.799001,-31.419,-42.480003
1745691305880,-20.597295541126254,4.825747133237943,0.0,-0.48123455,0.557849,10.702082,0.22418754,-0.044593163,-1.133155,-8.794001,-31.204002,-44.819
1745691305892,-20.59189265985832,4.825745176368787,0.0,-0.842759,0.866701,9.730036,0.34697145,-0.053145275,-1.1032226,-8.6970005,-31.417002,-42.796
1745691305902,-20.587390258801705,4.82574354564449,0.0,-0.9744401,0.9552865,9.040505,0.37507126,-0.057421334,-1.0720685,-7.5820003,-31.088001,-41.077003
1745691305913,-20.58243761763943,4.825741751847763,0.0,-1.2162545,1.2737153,8.465898,0.3481932,-0.042760566,-1.0366384,-9.405001,-30.903002,-40.483
1745691305924,-20.57748497647716,4.825739958051037,0.0,-1.1947067,1.3934253,8.109161,0.24678956,-0.032986723,-0.9969321,-7.3690004,-30.134,-42.784
1745691305934,-20.572982575420546,4.82573832732674,0.0,-1.3934253,1.3982137,8.046912,0.13194689,-0.03176499,-0.98349303,-7.3760004,-30.873001,-42.031002
1745691305945,-20.56802993425827,4.825736533530013,0.0,-1.6376339,1.3599066,8.243237,-0.004276057,-0.031154128,-0.95233893,-8.392,-31.306002,-43.322002
1745691305957,-20.562627052990337,4.825734576660857,0.0,-1.6448165,1.2114661,8.801085,-0.14721853,-0.05009095,-0.92057395,-7.477,-30.874,-42.246002
1745691305969,-20.5572241717224,4.825732619791701,0.0,-1.6280571,1.0414777,9.631873,-0.24190263,-0.050701816,-0.90224797,-7.2780004,-31.189001,-41.600002
1745691305979,-20.552721770665787,4.825730989067404,0.0,-1.484405,0.93373865,10.352529,-0.25289822,-0.027488936,-0.8863655,-6.4610004,-30.647001,-43.606003
1745691305989,-20.548219369609175,4.825729358343107,0.0,-1.4030021,0.9672575,10.654198,-0.2302962,-0.013439035,-0.88514376,-6.7640004,-30.442001,-42.448
1745691305999,-20.543716968552562,4.82572772761881,0.0,-1.3024458,0.94331545,10.670957,-0.19058995,0.008552114,-0.8881981,-7.0590005,-29.496002,-43.105003
1745691306009,-20.53921456749595,4.825726096894513,0.0,-1.283292,0.93373865,10.5680065,-0.16982053,0.017715093,-0.89736104,-6.6460004,-28.543001,-42.791
1745691306019,-20.534712166439338,4.825724466170216,0.0,-1.4293385,0.93852705,10.472239,-0.15821409,0.018936822,-0.8924741,-6.847,-28.336,-42.055
1745691306029,-20.530209765382725,4.825722835445919,0.0,-1.4389153,0.9600749,10.584765,-0.14049901,0.007941248,-0.8790351,-6.4500003,-29.175001,-41.503002
1745691306039,-20.525707364326113,4.8257212047216225,0.0,-1.2808979,0.9816227,10.728417,-0.10873401,-0.021380283,-0.87109387,-4.316,-28.512001,-42.102
1745691306049,-20.521204963269497,4.8257195739973255,0.0,-1.2162545,1.0462662,10.642226,-0.05375614,-0.031154128,-0.870483,-3.6990001,-27.553001,-43.163002
1745691306059,-20.516702562212885,4.825717943273029,0.0,-1.1779473,1.0702082,10.512939,-0.0030543262,-0.02321288,-0.8717047,-4.8170004,-28.512001,-46.679
1745691306069,-20.512200161156272,4.825716312548732,0.0,-1.1061212,1.1755531,10.129868,0.06352998,-0.040927973,-0.8723156,-5.215,-27.674002,-46.275
1745691306079,-20.50769776009966,4.825714681824435,0.0,-1.115698,1.2617443,9.737218,0.09407325,-0.045814894,-0.87109387,-5.011,-27.357,-45.319004
1745691306090,-20.502745118937387,4.8257128880277085,0.0,-1.1109096,1.3120226,9.454702,0.100792766,-0.042760566,-0.86498517,-4.505,-27.141,-43.824
1745691306100,-20.498242717880775,4.8257112573034115,0.0,-0.9959879,1.3599066,9.232041,0.081855945,-0.03848451,-0.86254174,-4.801,-26.197,-43.526
1745691306110,-20.493740316824162,4.825709626579115,0.0,-0.90261406,1.376666,9.155427,0.049480084,-0.015271631,-0.86559606,-3.788,-26.289001,-43.714
1745691306120,-20.489237915767546,4.825707995854818,0.0,-0.8738836,1.3359646,9.251195,0.004886922,0.0018325958,-0.874759,-3.0820003,-26.596,-43.375004
1745691306130,-20.484735514710934,4.825706365130521,0.0,-0.93852705,1.3120226,9.435549,-0.029321533,0.0012217305,-0.87598073,-2.887,-27.437002,-43.465004
1745691306140,-20.48023311365432,4.825704734406224,0.0,-0.9959879,1.283292,9.801862,-0.053145275,-0.015882496,-0.8698721,-2.47,-26.27,-44.322002
1745691306150,-20.47573071259771,4.825703103681927,0.0,-1.0127473,1.2306197,10.216059,-0.05131268,-0.040927973,-0.8546005,-3.3850002,-26.599,-44.125004
1745691306160,-20.471228311541097,4.82570147295763,0.0,-0.9864111,1.1803415,10.532093,-0.018325957,-0.057421334,-0.838718,-3.7860003,-26.182001,-44.565002
1745691306171,-20.466275670378824,4.825699679160903,0.0,-0.9983821,1.13964,10.69011,0.03481932,-0.10323623,-0.8167268,-3.788,-26.393002,-44.350002
1745691306182,-20.461323029216548,4.8256978853641765,0.0,-1.0247183,1.1013328,10.78109,0.11484267,-0.14355333,-0.7819075,-1.7580001,-25.944002,-44.098003
1745691306192,-20.961171982507654,4.859218253013639,0.0,-0.9720459,1.1109096,10.69011,0.18020524,-0.16737708,-0.7648033,-1.659,-25.945002,-42.609
1745691306203,-20.958917892080233,4.859218188181175,0.0,-0.93373865,1.1204864,10.460267,0.21930063,-0.17959438,-0.7495316,-2.365,-25.638,-42.948
1745691306213,-20.956868718964397,4.859218129242572,0.0,-0.85473,1.1133038,10.014946,0.26450464,-0.20341812,-0.73914695,-1.6380001,-23.729002,-43.808002
1745691306223,-20.95481954584856,4.859218070303967,0.0,-0.8643068,1.151611,9.574412,0.27000242,-0.19975294,-0.7440339,-1.9390001,-23.416,-44.244003
1745691306233,-20.952770372732726,4.859218011365364,0.0,-0.92655605,1.163582,9.200917,0.23823744,-0.18875736,-0.7440339,-2.7570002,-24.167002,-42.977
1745691306243,-20.950721199616886,4.859217952426761,0.0,-0.9720459,1.1899183,8.930372,0.15210545,-0.16676621,-0.73914695,-1.9460001,-23.946001,-42.325
1745691306253,-20.94867202650105,4.859217893488157,0.0,-0.90021986,1.1420342,8.932767,0.07574729,-0.1441642,-0.729984,-2.1390002,-22.998001,-43.405003
1745691306263,-20.946622853385215,4.859217834549553,0.0,-0.8882488,1.0606314,9.246407,-0.05131268,-0.122783914,-0.72021013,-2.038,-23.311,-44.885002
1745691306273,-20.94457368026938,4.85921777561095,0.0,-1.0845734,0.9504981,9.809045,-0.14294247,-0.09162979,-0.6976081,-0.92,-22.666,-43.488003
1745691306283,-20.942524507153543,4.8592177166723465,0.0,-1.1228806,0.830788,10.374076,-0.19303341,-0.06719518,-0.6658431,0.18300001,-23.811,-42.917004
1745691306293,-20.940475334037707,4.859217657733742,0.0,-1.0845734,0.80445176,10.879252,-0.19608775,-0.051923547,-0.6249151,-0.632,-24.559002,-43.88
1745691306304,-20.938221243610286,4.859217592901278,0.0,-1.0965444,0.80205756,11.195287,-0.13805555,-0.04337143,-0.5907067,-0.62100005,-23.502,-45.487003
1745691306315,-20.935967153182865,4.859217528068815,0.0,-1.1947067,0.8331822,11.18571,-6.1086525E-4,-0.05131268,-0.54183745,0.291,-23.28,-44.408
1745691306325,-20.93391798006703,4.859217469130211,0.0,-1.3239936,0.89064306,10.783484,0.12889257,-0.058643065,-0.5002986,0.29900002,-22.332,-44.209003
1745691306335,-20.931868806951194,4.859217410191608,0.0,-1.4867992,0.9552865,10.383653,0.21868975,-0.044593163,-0.46120325,-0.91,-21.715,-44.669003
1745691306345,-20.929819633835358,4.859217351253004,0.0,-1.6112977,1.0366893,9.694122,0.2779437,-0.030543262,-0.39095375,-1.511,-20.984001,-45.33
1745691306355,-20.927770460719522,4.8592172923144,0.0,-1.6591818,1.1420342,9.289502,0.2761111,-0.0036651916,-0.33841935,-2.127,-21.628,-43.211002
1745691306366,-20.9255163702921,4.8592172274819365,0.0,-1.757344,1.2162545,9.0716305,0.25045475,0.018325957,-0.2919936,-0.91300005,-21.718,-42.546
1745691306377,-20.92326227986468,4.859217162649473,0.0,-1.9393034,1.2569559,9.112331,0.20463985,0.01282817,-0.22907446,-1.6120001,-20.673,-42.895
1745691306387,-20.921213106748844,4.8592171037108685,0.0,-1.958457,1.3192052,9.279925,0.18387043,-0.019547688,-0.17165314,-1.616,-21.199001,-43.312
1745691306398,-20.918959016321423,4.859217038878405,0.0,-1.8602947,1.292869,9.330204,0.19120082,-0.07269296,-0.11301007,-0.296,-20.76,-43.183002
1745691306408,-20.916909843205588,4.859216979939801,0.0,-1.7286136,1.2904748,9.148245,0.19608775,-0.1459968,-0.061086524,0.101,-21.702002,-43.798
1745691306418,-20.91486067008975,4.859216921001198,0.0,-1.6400281,1.2593501,8.841787,0.1826487,-0.17287487,-0.03848451,-1.108,-21.086,-43.833
1745691306428,-20.912811496973916,4.859216862062594,0.0,-1.4269443,1.1683705,8.628703,0.11301007,-0.1685988,-0.0030543262,-0.712,-22.135,-43.81
1745691306439,-20.910557406546495,4.85921679723013,0.0,-1.1899183,1.0941502,8.631097,0.0067195175,-0.12339478,0.014660766,0.097,-22.229002,-44.215004
1745691306450,-20.908303316119074,4.859216732397666,0.0,-0.91458505,1.0390835,8.985439,-0.14110987,-0.061086524,0.0061086523,0.09900001,-21.913,-44.007004
1745691306464,-20.905434473756905,4.859216649883622,0.0,-0.7134721,0.89782566,9.440337,-0.24129178,-0.009773844,-0.015271631,-0.20500001,-21.919,-42.846
1745691306474,-20.90338530064107,4.859216590945017,0.0,-0.60812724,0.7661445,10.0269165,-0.32436943,0.04520403,-0.050701816,0.2,-21.913,-43.368004
