timestamp,position_x,position_y,position_z,acceleration_x,acceleration_y,acceleration_z,angular_velocity_x,angular_velocity_y,angular_velocity_z
1740482246.896517,0.0,0.0,0.0,-0.07380449771881104,-9.450675964355469,2.4326393604278564,0.14110499620437622,-0.03872285038232803,-0.20076146721839905
1740482247.245823,-2.4047458282439038e-05,-3.934498454327695e-05,-0.00022561057994607836,-0.08333253860473633,-9.455470085144043,2.4348628520965576,0.019655866548419,0.11352299898862839,-0.019766254350543022
1740482247.4339347,-2.4047460101428442e-05,-3.9344977267319337e-05,-0.0002256105944979936,-0.09996716678142548,-9.446020126342773,2.4400031566619873,0.04569096490740776,-0.10230927169322968,0.09756261110305786
1740482247.6124003,-2.4047461920417845e-05,-3.9344977267319337e-05,-0.0002256105944979936,-0.0928485244512558,-9.457865715026855,2.4275763034820557,-0.13481342792510986,-0.13592839241027832,-0.05167744681239128
1740482247.7759197,-2.404746373940725e-05,-3.934496999136172e-05,-0.0002256105944979936,-0.09762436896562576,-9.443621635437012,2.4418416023254395,-0.016943732276558876,-0.22874443233013153,0.0067594959400594234
1740482247.9294217,-2.404746373940725e-05,-3.9344966353382915e-05,-0.0002256105944979936,-0.08572088181972504,-9.453092575073242,2.434708833694458,0.07579198479652405,0.08227085322141647,0.03760785236954689
1740482248.0704682,-2.4047465558396652e-05,-3.93449590774253e-05,-0.0002256105944979936,-0.09048555791378021,-9.462674140930176,2.451582908630371,0.07591188699007034,-0.008875297382473946,-0.05326355621218681
1740482248.2070014,-2.4047465558396652e-05,-3.934494816348888e-05,-0.0002256105944979936,-0.09758654236793518,-9.45078182220459,2.442457675933838,-0.015640130266547203,0.14562447369098663,0.15750561654567719
1740482248.3405626,-2.4047467377386056e-05,-3.9344940887531266e-05,-0.0002256105944979936,-0.0785687267780304,-9.4578275680542,2.430107593536377,0.04364811256527901,0.052051085978746414,0.09603344649076462
1740482248.493933,-2.404746919637546e-05,-3.9344929973594844e-05,-0.0002256105944979936,-0.08810881525278091,-9.457878112792969,2.4418416023254395,-0.07708916068077087,-0.07200559228658676,-0.02422397956252098
1740482248.6340585,-2.4047471015364863e-05,-3.934493361157365e-05,-0.00022561060904990882,-0.08574841916561127,-9.441210746765137,2.448820114135742,0.0438532717525959,0.05234702304005623,-0.02420150861144066
1740482248.7796094,-2.4047472834354267e-05,-3.9344929973594844e-05,-0.00022561060904990882,-0.08572863042354584,-9.457858085632324,2.437009572982788,-0.016812270507216454,0.021997692063450813,-0.054062917828559875
1740482248.9145799,-2.4047472834354267e-05,-3.9344929973594844e-05,-0.00022561060904990882,-0.09288682043552399,-9.445989608764648,2.4463655948638916,-0.10689154267311096,-0.009218914434313774,-0.1143367663025856
1740482249.059923,-2.4047472834354267e-05,-3.9344929973594844e-05,-0.00022561060904990882,-0.05959092080593109,-9.44829273223877,2.460785150527954,0.07161390781402588,-0.13075318932533264,-0.08588957786560059
1740482249.1908147,-2.4047472834354267e-05,-3.9344929973594844e-05,-0.00022561060904990882,-0.08808601647615433,-9.445943832397461,2.4276530742645264,-0.04892050102353096,0.08505219966173172,0.036012303084135056
1740482249.3244338,-2.4047472834354267e-05,-3.9344929973594844e-05,-0.00022561060904990882,-0.09999467432498932,-9.4697904586792,2.427422046661377,-0.017665764316916466,0.08465602993965149,-0.08390383422374725
1740482249.4625044,-2.4047472834354267e-05,-3.9344929973594844e-05,-0.00022561060904990882,-0.06909358501434326,-9.45065689086914,2.4391560554504395,0.010493321344256401,-0.009259468875825405,-0.025383198633790016
1740482249.6016583,-2.4047472834354267e-05,-3.9344929973594844e-05,-0.00022561060904990882,-0.1071266308426857,-9.460290908813477,2.427499294281006,0.09943472594022751,-0.04006807878613472,0.0639747828245163
1740482249.7372131,-2.4047472834354267e-05,-3.9344929973594844e-05,-0.00022561060904990882,-0.07858334481716156,-9.453039169311523,2.4225900173187256,0.06753446161746979,-0.010880998335778713,0.18423449993133545
1740482249.8750203,-2.4047472834354267e-05,-3.9344929973594844e-05,-0.00022561060904990882,-0.07861045002937317,-9.445937156677246,2.443988084793091,-0.050887517631053925,-0.07021613419055939,-0.05592966824769974
1740482250.0100718,-2.4047472834354267e-05,-3.9344929973594844e-05,-0.00022561060904990882,-0.09529194980859756,-9.431722640991211,2.4556448459625244,0.10235762596130371,0.0855744257569313,-0.17583103477954865
1740482250.1558278,-2.4047472834354267e-05,-3.9344929973594844e-05,-0.00022561060904990882,-0.04781175032258034,-9.431727409362793,2.5365591049194336,0.04478725045919418,0.4823845624923706,-0.14160354435443878
1740482250.2918417,-2.4047472834354267e-05,-3.9344929973594844e-05,-0.00022561060904990882,-0.03360552340745926,-9.417525291442871,2.6009840965270996,0.14173778891563416,1.064753770828247,-0.2569498121738434
1740482250.4401882,-3.784970613196492e-05,-2.1674707113561453e-06,0.003727891016751528,-0.10487809032201767,-9.408061027526855,2.5151607990264893,0.021482650190591812,0.9094870686531067,-0.4072393774986267
1740482250.6173291,0.001034323824569583,5.1864972192561254e-05,0.009480089880526066,-0.18323741853237152,-9.505711555480957,2.3937511444091797,-0.3642699718475342,-0.9585301876068115,0.2140996754169464
1740482250.7948499,0.002307826653122902,7.835162978153676e-05,0.016801461577415466,-0.11660171300172806,-9.483997344970703,2.3650662899017334,-0.2695831060409546,-3.0720715522766113,0.7722759246826172
1740482250.9668171,0.0007924590609036386,0.00022662547416985035,0.024284550920128822,-7.167784497141838e-05,-9.452727317810059,2.400883913040161,-0.1075436919927597,-2.2924811840057373,0.41594642400741577
1740482251.1465652,-0.0023192353546619415,0.0002660447498783469,0.02871084213256836,-0.061974089592695236,-9.503019332885742,2.441302537918091,0.06782050430774689,-2.4803693294525146,0.7141069769859314
1740482251.3267126,-0.006064876448363066,0.0003203186788596213,0.033351920545101166,-0.12139393389225006,-9.450737953186035,2.3960518836975098,-0.038545407354831696,-1.4543755054473877,0.30014362931251526
1740482251.500268,-0.009050486609339714,0.0003235737094655633,0.037887923419475555,-0.07870294898748398,-9.474629402160645,2.5055739879608154,-0.24370886385440826,-0.9576834440231323,0.2136356234550476
1740482251.674767,-0.01176205463707447,0.0003163068904541433,0.04162466898560524,-0.014430655166506767,-9.431486129760742,2.472287654876709,-0.02574828267097473,-0.3971385657787323,0.0358206070959568
1740482251.858766,-0.013221855275332928,0.0003140672924928367,0.04598540812730789,-0.1760968416929245,-9.491365432739258,2.3792548179626465,0.14808398485183716,-0.8029316067695618,0.2728368937969208
1740482252.0378048,-0.013774012215435505,0.00034672144101932645,0.051368553191423416,-0.11445172876119614,-9.42481517791748,2.5457611083984375,-0.19261690974235535,-1.67343008518219,0.41952815651893616
1740482252.211217,-0.016018511727452278,0.0003669798607006669,0.05478803068399429,-0.11691837757825851,-9.427323341369629,2.607423782348633,-0.8043916821479797,-1.806376338005066,1.080887794494629
1740482252.3974073,-0.01976528950035572,0.00043742801062762737,0.060448821634054184,-0.028677338734269142,-9.686271667480469,2.443603038787842,-0.41081950068473816,-2.480374813079834,0.446132093667984
1740482252.5769014,-0.02473544329404831,0.00044647202594205737,0.06775877624750137,-0.0405399464070797,-9.512368202209473,2.395589590072632,-0.06912697106599808,-1.3640799522399902,0.3606592118740082
1740482252.7569957,-0.028534993529319763,0.00030697567854076624,0.07288841903209686,-0.0833410993218422,-9.45536994934082,2.395897626876831,-0.06008785590529442,-0.5862454175949097,0.21483319997787476
1740482252.938829,-0.030534422025084496,0.0002177065471187234,0.07528553903102875,-0.07142210006713867,-9.479056358337402,2.3574717044830322,0.0023475915659219027,-0.37016329169273376,0.15571428835391998
1740482253.1339288,-0.03189587965607643,0.00020851778390351683,0.07739917188882828,-0.10242170095443726,-9.462597846984863,2.412078619003296,0.19119223952293396,0.31393417716026306,-0.021342923864722252
1740482253.3565586,-0.03213273733854294,0.00016982844681479037,0.07770844548940659,-0.11205561459064484,-9.424741744995117,2.5169224739074707,-0.2612587511539459,-0.08815991878509521,-0.23153796792030334
1740482253.6164527,-0.0324149951338768,0.00015401739801745862,0.0780639797449112,-0.009802785702049732,-9.524458885192871,2.540544033050537,-0.22091689705848694,-1.3658326864242554,0.45119526982307434
1740482253.873609,-0.03447909280657768,0.00022166768030729145,0.08556483685970306,0.0523061566054821,-9.39050579071045,2.3409056663513184,0.37533414363861084,0.22522303462028503,-0.3523506224155426
1740482254.0743992,-0.0367390401661396,0.0002598846913315356,0.0972599908709526,-0.14286074042320251,-9.403223991394043,2.4218196868896484,0.23370836675167084,0.939902126789093,-0.5579073429107666
1740482254.2505498,-0.03703244775533676,0.0003394722589291632,0.10505487769842148,-0.18335527181625366,-9.43913459777832,2.4524972438812256,-0.01292215846478939,1.2421950101852417,0.10429321974515915
1740482254.4352036,-0.036599770188331604,0.00039247411768883467,0.11136209964752197,-0.1332823634147644,-9.484039306640625,2.3646044731140137,-0.07940620183944702,0.3134141266345978,-0.05025145038962364
1740482254.6263063,-0.035553619265556335,0.000510987127199769,0.11782920360565186,-0.11193210631608963,-9.474489212036133,2.3927500247955322,-0.11387649178504944,-0.21502166986465454,-0.11291000247001648
1740482254.8358436,-0.0354340486228466,0.0005813190364278853,0.12273542582988739,-0.10250687599182129,-9.407922744750977,2.464076519012451,0.06681061536073685,-0.09102790802717209,-0.02301807701587677
1740482255.0411007,-0.035547420382499695,0.0006323492852970958,0.12605322897434235,-0.031109102070331573,-9.45523452758789,2.428182601928711,-0.11629150807857513,-0.12512469291687012,0.12742356956005096
1740482255.2332542,-0.03590396046638489,0.0006820655544288456,0.12987104058265686,-0.07868135720491409,-9.467270851135254,2.416140556335449,0.0046609025448560715,-0.21729271113872528,0.006505176424980164
1740482255.4212756,-0.03610144928097725,0.000731034146156162,0.13447338342666626,-0.10001308470964432,-9.441024780273438,2.3543238639831543,0.24396422505378723,-0.4023270606994629,0.004583690781146288
1740482255.6237953,-0.036355700343847275,0.0007841811166144907,0.13892655074596405,-0.1050070971250534,-9.405701637268066,2.5446059703826904,-0.027783354744315147,-0.1571425050497055,0.24683412909507751
1740482255.8768728,-0.036489441990852356,0.0008215509005822241,0.14300456643104553,-0.09765313565731049,-9.517276763916016,2.3807082176208496,0.12722764909267426,-0.05485949292778969,-0.026813311502337456
1740482256.079929,-0.037237510085105896,0.0008795334724709392,0.15107271075248718,-0.07871192693710327,-9.436409950256348,2.4593217372894287,-0.11244097352027893,0.06885521858930588,-0.02519681118428707
1740482256.2570002,-0.0375540591776371,0.0009378051618114114,0.15648789703845978,-0.11200953274965286,-9.41981315612793,2.4424479007720947,-0.22125022113323212,0.7536121010780334,-0.5009340643882751
1740482256.446375,-0.03768058866262436,0.0010810567764565349,0.16211462020874023,-0.10250254720449448,-9.46737289428711,2.4301748275756836,-0.012514088302850723,1.1521905660629272,-0.07991936802864075
1740482256.629387,-0.037790924310684204,0.0010888047982007265,0.16621138155460358,-0.1334376484155655,-9.4365816116333,2.4567131996154785,0.15937988460063934,-0.022772811353206635,-0.1767018586397171
1740482256.8141189,-0.03733651712536812,0.0012143307831138372,0.1705377846956253,-0.052499327808618546,-9.47426700592041,2.389679431915283,-0.026039939373731613,0.002281843451783061,0.1839265674352646
1740482256.9964142,-0.037316326051950455,0.0012202240759506822,0.1759808361530304,-0.1000358909368515,-9.455339431762695,2.3685123920440674,-0.023273536935448647,0.03588810935616493,0.004211196675896645
1740482257.1842608,-0.03726990893483162,0.0012290182057768106,0.1807279884815216,-0.12389581650495529,-9.44361400604248,2.4207417964935303,0.09827727824449539,0.2525634169578552,0.06483261287212372
1740482257.3738213,-0.0372292622923851,0.0012674026656895876,0.18565155565738678,-0.11669545620679855,-9.43398380279541,2.3780996799468994,0.07054358720779419,0.37793514132499695,-0.02433367632329464
1740482257.5631032,-0.037091292440891266,0.0013363122707232833,0.19096434116363525,-0.08111961930990219,-9.491155624389648,2.451572895050049,-0.13204941153526306,1.0907193422317505,-0.19970814883708954
1740482257.740445,-0.037042878568172455,0.0013389555970206857,0.1974402815103531,-0.12388334423303604,-9.41027545928955,2.41851806640625,-0.08395633101463318,2.1828174591064453,-0.8537761569023132
1740482257.9215355,-0.034734275192022324,0.0014043382834643126,0.20482832193374634,-0.10505354404449463,-9.470011711120605,2.5584094524383545,-0.0669068768620491,1.124667763710022,-0.5896010398864746
1740482258.1205444,-0.032376840710639954,0.0015198959736153483,0.21302659809589386,-0.031279031187295914,-9.45068073272705,2.53946590423584,-0.21496669948101044,1.5266841650009155,-0.49693554639816284
1740482258.3487878,-0.03080243058502674,0.0015746516874060035,0.2228837013244629,-0.07850795984268188,-9.355021476745605,2.2563815116882324,0.8404340147972107,1.6546566486358643,-0.5304367542266846
1740482258.5460584,-0.027989495545625687,0.0017079967074096203,0.23826396465301514,-0.11675868183374405,-9.41734790802002,2.401336193084717,-0.09897883981466293,1.2150458097457886,-0.3791236877441406
1740482258.7283065,-0.024778863415122032,0.0017913541523739696,0.24947747588157654,-0.10722504556179047,-9.481583595275879,2.387070655822754,0.04657870531082153,0.8115532994270325,-0.2618878185749054
1740482258.9293768,-0.021289970725774765,0.0020224100444465876,0.26235657930374146,-0.19072552025318146,-9.415501594543457,2.5530381202697754,-0.8148788213729858,1.4309120178222656,-0.8249709606170654
1740482259.1140544,-0.018660973757505417,0.0021159625612199306,0.27545174956321716,-0.29744094610214233,-9.353439331054688,2.296415090560913,-0.9697521924972534,0.965628981590271,-0.7968088984489441
1740482259.3087656,-0.015617983415722847,0.002188893500715494,0.2875928580760956,-0.08575519919395447,-9.519499778747559,2.33223295211792,-0.16477487981319427,1.271950125694275,0.10117043554782867
1740482259.4939213,-0.014075566083192825,0.0022553468588739634,0.29902955889701843,-0.11196260899305344,-9.483908653259277,2.3558542728424072,0.3525222837924957,1.184793472290039,-0.4110867381095886
1740482259.6875782,-0.012146098539233208,0.0023195799440145493,0.3094196021556854,-0.07147840410470963,-9.438501358032227,2.337141990661621,0.4993387460708618,0.9682000279426575,-0.23286882042884827
1740482259.8800466,-0.010077652521431446,0.002498702611774206,0.31627970933914185,-0.14529334008693695,-9.457906723022461,2.3918259143829346,0.5611149668693542,1.1852316856384277,-0.20198513567447662
1740482260.0718858,-0.007845291867852211,0.0026019345968961716,0.326643168926239,-0.057227399200201035,-9.419381141662598,2.3319249153137207,0.7139887809753418,1.4630948305130005,-0.23116014897823334
1740482260.2548962,-0.006046594120562077,0.002669548150151968,0.33752158284187317,-0.021479906514286995,-9.433488845825195,2.2965691089630127,0.6461613178253174,1.3970102071762085,0.3684816062450409
1740482260.4958067,-0.0034849897492676973,0.0027377652004361153,0.3466957211494446,-0.07144738733768463,-9.509796142578125,2.274554967880249,0.2174517810344696,0.4636129140853882,0.21527035534381866
1740482260.6745548,-0.0015860733110457659,0.002794878091663122,0.3535834550857544,-0.10962070524692535,-9.486303329467773,2.369811773300171,0.006865730043500662,0.09370068460702896,-0.05568891391158104
1740482260.8584054,-0.0011157807894051075,0.002885709749534726,0.3556244969367981,-0.09779722988605499,-9.438739776611328,2.422041177749634,-0.11451446264982224,-0.0001637911336729303,-0.055711738765239716
1740482261.037428,-0.0008587665506638587,0.0029382812790572643,0.35579273104667664,-0.10260063409805298,-9.44601821899414,2.4771103858947754,-0.05255943536758423,0.18759222328662872,-0.02494138665497303
1740482261.2169223,-0.0006716996431350708,0.0029853214509785175,0.35599425435066223,-0.10495025664567947,-9.46499252319336,2.438760995864868,-0.05026897042989731,0.4037701189517975,-0.08381354063749313
1740482261.3999352,-0.00046785385347902775,0.003023365745320916,0.3573024272918701,-0.08597975224256516,-9.448335647583008,2.479025363922119,-0.0807620957493782,0.4644438922405243,-0.02342107519507408
1740482261.5958028,-0.00016839483578223735,0.0030513289384543896,0.35992878675460815,-0.07178772240877151,-9.405552864074707,2.543219804763794,-0.34435445070266724,0.6842638850212097,-0.470986545085907
1740482261.799766,0.0006353274802677333,0.0030361085664480925,0.36526086926460266,-0.038325317203998566,-9.455191612243652,2.4147543907165527,-0.03831540793180466,0.9967907667160034,-0.6504650712013245
1740482261.9966285,0.0024595828726887703,0.0030712615698575974,0.37371525168418884,-0.17128433287143707,-9.43856143951416,2.2102835178375244,0.6840435862541199,1.6157482862472534,-0.17031018435955048
1740482262.2266958,0.004940709099173546,0.002937879180535674,0.38546258211135864,-0.12178060412406921,-9.436665534973145,2.5450587272644043,-0.6714074611663818,0.8995888829231262,-0.7084919810295105
1740482262.5142744,0.008657905273139477,0.0028714684303849936,0.397322416305542,-0.021611535921692848,-9.50979995727539,2.3623709678649902,0.25011909008026123,0.7731055617332458,0.21675528585910797
1740482262.807991,0.010247847065329552,0.0028355747926980257,0.41196343302726746,-0.16645726561546326,-9.395573616027832,2.155599594116211,1.0978517532348633,0.810825526714325,-0.11621932685375214
1740482263.090752,0.014687464572489262,0.002810671692714095,0.42538878321647644,-0.08349501341581345,-9.443352699279785,2.3764052391052246,-0.22769023478031158,0.21846580505371094,-0.5339128375053406
1740482263.2769678,0.016871407628059387,0.002792886458337307,0.4328940212726593,-0.19061535596847534,-9.410510063171387,2.4432082176208496,-0.2324286699295044,0.27761122584342957,-0.08379114419221878
1740482263.4629407,0.0179367046803236,0.0027783021796494722,0.4366999864578247,-0.15723466873168945,-9.434063911437988,2.371650218963623,0.06793099641799927,0.2158125787973404,-0.08532978594303131
1740482263.6391046,0.01905984990298748,0.0027670671697705984,0.43994638323783875,-0.1144515872001648,-9.474421501159668,2.3856074810028076,0.0059310016222298145,0.30563393235206604,0.09526191651821136
1740482263.819043,0.019807519391179085,0.002722040982916951,0.44228488206863403,-0.07169392704963684,-9.460127830505371,2.4501097202301025,-0.021602975204586983,0.3084549903869629,-0.08448751270771027
1740482264.0022457,0.02074028179049492,0.0027236323803663254,0.44437792897224426,-0.0930492952466011,-9.471972465515137,2.3879082202911377,0.09455549716949463,0.11962765455245972,0.09392295032739639
1740482264.1986065,0.021005185320973396,0.0026821019127964973,0.44652196764945984,-0.10021394491195679,-9.460162162780762,2.4214251041412354,-0.024708706885576248,0.05919468775391579,-0.025836432352662086
1740482264.4014447,0.021307431161403656,0.0026690540835261345,0.44792622327804565,-0.08357546478509903,-9.476787567138672,2.428480625152588,-0.025982294231653214,0.15011203289031982,0.12457503378391266
1740482264.58944,0.021480737254023552,0.002659301506355405,0.4482589364051819,-0.08604986220598221,-9.441197395324707,2.4924440383911133,0.03438428416848183,0.14312660694122314,-0.024367688223719597
1740482264.772446,0.021625280380249023,0.0026507279835641384,0.44845154881477356,-0.05738053470849991,-9.455225944519043,2.4070825576782227,0.034659892320632935,0.3213920593261719,0.12901447713375092
1740482264.961201,0.023323681205511093,0.0026961462572216988,0.45466846227645874,-0.07649943977594376,-9.464933395385742,2.468745231628418,-0.024099046364426613,0.38324251770973206,0.039602890610694885
1740482265.1536746,0.024640316143631935,0.0027005551382899284,0.4596650004386902,-0.08348595350980759,-9.500422477722168,2.3425803184509277,-0.022973982617259026,0.3218400776386261,-0.11066386103630066
1740482265.3462656,0.025334952399134636,0.002742011798545718,0.46502771973609924,-0.09791764616966248,-9.469751358032227,2.463759183883667,0.09631428867578506,0.19797098636627197,-0.11179669946432114
1740482265.5480983,0.025840679183602333,0.0027958217542618513,0.46962571144104004,-0.10725811868906021,-9.460002899169922,2.3331472873687744,0.09080174565315247,-0.11347879469394684,0.12647606432437897
1740482265.7372036,0.026038002222776413,0.0027916962280869484,0.47335076332092285,-0.09075214713811874,-9.445878982543945,2.4448156356811523,0.11589550226926804,-0.5485639572143555,0.2140292227268219
1740482265.9224992,0.026402808725833893,0.0028211381286382675,0.47700998187065125,-0.13828183710575104,-9.455487251281738,2.4067745208740234,0.003380625508725643,0.10362205654382706,0.03800417482852936
1740482266.1087441,0.02690841630101204,0.002869489137083292,0.48133260011672974,-0.08850661665201187,-9.457948684692383,2.5348548889160156,-0.32462871074676514,0.47319257259368896,0.01123110018670559
1740482266.3440874,0.027211738750338554,0.002897637663409114,0.4855741858482361,-0.06934209913015366,-9.452951431274414,2.4448156356811523,-0.11005069315433502,0.6935358047485352,-0.10836093872785568
1740482266.5375602,0.028007110580801964,0.002916662720963359,0.49528592824935913,-0.04789033159613609,-9.398026466369629,2.404242992401123,0.1926216185092926,0.6336453557014465,-0.2897968590259552
1740482266.7216969,0.031194046139717102,0.002953717252239585,0.5016306638717651,-0.05019046738743782,-9.49073314666748,2.3230206966400146,-0.2621098458766937,0.7207126021385193,-0.017721399664878845
1740482266.9162595,0.032410044223070145,0.0029256439302116632,0.5093759894371033,-0.11686186492443085,-9.47680377960205,2.3875231742858887,-0.024239860475063324,0.16603265702724457,-0.14148925244808197
1740482267.100843,0.03341314569115639,0.002927648602053523,0.5158909559249878,-0.12883935868740082,-9.48410701751709,2.4492626190185547,-0.05417493358254433,0.19656716287136078,-0.14121830463409424
1740482267.2832687,0.034641534090042114,0.002924589440226555,0.5205663442611694,-0.1241181492805481,-9.45079231262207,2.4705069065093994,-0.11377191543579102,0.2886427044868469,-0.1405140906572342
1740482267.4739578,0.03640778735280037,0.0029504180420190096,0.5261560082435608,-0.102607861161232,-9.500542640686035,2.3799283504486084,0.33446720242500305,0.37963616847991943,0.1879960298538208
1740482267.6710835,0.037966009229421616,0.0029689136426895857,0.5342769026756287,-0.13594979047775269,-9.424520492553711,2.4132912158966064,0.06714283674955368,0.1657189577817917,-0.26183173060417175
1740482267.8640115,0.03904436528682709,0.002979926997795701,0.5407217741012573,-0.15725314617156982,-9.450675964355469,2.3519365787506104,0.423755407333374,-0.019341548904776573,0.03567688167095184
1740482268.0822003,0.04001316428184509,0.002985491184517741,0.5472436547279358,-0.14543740451335907,-9.429308891296387,2.406466484069824,0.010185619816184044,-1.7934247255325317,0.5376832485198975
1740482268.31472,0.04029714688658714,0.003041365649551153,0.5528286099433899,-0.02426787279546261,-9.431440353393555,2.493743419647217,-0.1270209401845932,-0.7703247666358948,0.1237599328160286
1740482268.490871,0.03936311975121498,0.0031203997787088156,0.5575309991836548,-0.1597679853439331,-9.536537170410156,2.42494797706604,0.23747804760932922,-0.3963196277618408,0.15428997576236725
1740482268.6811652,0.03915325552225113,0.003123771632090211,0.5647919774055481,-0.09313789010047913,-9.476750373840332,2.4083049297332764,0.15049870312213898,-0.05536948889493942,0.12644609808921814
1740482268.8721173,0.03907918557524681,0.003142537549138069,0.5721686482429504,-0.1169629618525505,-9.460216522216797,2.436835765838623,0.032387875020504,0.2539289593696594,0.1585274189710617
1740482269.0727918,0.03901676461100578,0.0031932855490595102,0.5792939066886902,-0.09787287563085556,-9.483882904052734,2.3941166400909424,-0.0004670692142099142,-0.025163911283016205,0.18717952072620392
1740482269.253565,0.039114534854888916,0.0032539325766265392,0.5864670276641846,-0.0740809291601181,-9.459986686706543,2.3917391300201416,-0.08777879923582077,0.06904029846191406,0.008114742115139961
1740482269.448944,0.03954631835222244,0.0033264390658587217,0.5924206972122192,-0.0740981325507164,-9.46712875366211,2.393885612487793,0.11791865527629852,-0.2734886407852173,0.15539340674877167
1740482269.6379948,0.039636291563510895,0.003381362883374095,0.5975427627563477,-0.13601863384246826,-9.43648624420166,2.4485695362091064,-0.09181303530931473,-0.15034106373786926,0.15687184035778046
1740482269.826923,0.039665691554546356,0.003449922427535057,0.602443277835846,-0.11693498492240906,-9.450618743896484,2.4033188819885254,0.03234945982694626,-0.05508611723780632,-0.0830010175704956
1740482270.0129235,0.03982314467430115,0.003479740349575877,0.6083177328109741,-0.07657770067453384,-9.469685554504395,2.477177619934082,0.03085402213037014,0.006056003272533417,0.09725022315979004
1740482270.2665603,0.03986099362373352,0.003496903693303466,0.6155176758766174,-0.14310021698474884,-9.467352867126465,2.3936545848846436,0.027002479881048203,-0.18266557157039642,0.24615980684757233
1740482270.4642274,0.03984520956873894,0.0035106756258755922,0.6248357892036438,-0.09075382351875305,-9.488601684570312,2.3889763355255127,-0.20741458237171173,0.1293419748544693,-0.051104817539453506
1740482270.6545296,0.03978973254561424,0.003534543327987194,0.6316936612129211,-0.052688516676425934,-9.428938865661621,2.386598825454712,0.3591281473636627,-0.18042196333408356,0.18489748239517212
1740482270.8355896,0.0401480533182621,0.003593881381675601,0.6380196809768677,-0.12636062502861023,-9.44096565246582,2.324705123901367,0.3296988308429718,-0.42685824632644653,-0.056168295443058014
1740482271.02785,0.04032491147518158,0.0036337568890303373,0.6441737413406372,-0.08594353497028351,-9.476588249206543,2.3437256813049316,0.12298949807882309,-0.0858880802989006,-0.14350733160972595
1740482271.2117105,0.04050818830728531,0.0036502170842140913,0.6486725211143494,-0.10980303585529327,-9.45773696899414,2.4032418727874756,-0.08984982222318649,-0.2419682890176773,-0.08351071178913116
1740482271.402027,0.04050462692975998,0.003664521500468254,0.6521406769752502,-0.09789995849132538,-9.460046768188477,2.388822555541992,0.0905592069029808,-0.0879211574792862,0.03650840371847153
1740482271.5971384,0.04065760597586632,0.003695722669363022,0.6547818183898926,-0.11457030475139618,-9.467340469360352,2.4297802448272705,0.11994434148073196,-0.2404032051563263,0.03564705699682236
1740482271.7977571,0.040826085954904556,0.003702985355630517,0.6571303606033325,-0.10024785995483398,-9.457595825195312,2.3529279232025146,-8.402166713494807e-05,0.0339079275727272,0.12743711471557617
1740482271.9762397,0.04088887572288513,0.0037393413949757814,0.6588840484619141,-0.10509470850229263,-9.462503433227539,2.4194226264953613,0.05972864478826523,-0.21293383836746216,-0.024030547589063644
1740482272.168368,0.040900882333517075,0.003758704522624612,0.659162163734436,-0.13367626070976257,-9.434069633483887,2.4431211948394775,0.0003193496959283948,-0.15125784277915955,-0.05346333980560303
1740482272.3503728,0.04080308973789215,0.0037984023801982403,0.6593521237373352,-0.10984475165605545,-9.433941841125488,2.4171221256256104,-0.059579361230134964,-0.02517765201628208,-0.023388411849737167
1740482272.5437112,0.040763743221759796,0.003825289197266102,0.6595048308372498,-0.10752224922180176,-9.45311164855957,2.4768693447113037,-0.0022556057665497065,-0.05451267585158348,0.15483614802360535
1740482272.7329729,0.04073408991098404,0.0038485091645270586,0.6596406698226929,-0.11714836955070496,-9.436616897583008,2.552720308303833,0.11898795515298843,0.011494221165776253,0.003628442995250225
1740482272.9227772,0.04070798307657242,0.0038693896494805813,0.6597633957862854,-0.12178097665309906,-9.457880020141602,2.4576947689056396,0.14307904243469238,-0.3555811643600464,0.17912277579307556
1740482273.119513,0.04068444296717644,0.003888272913172841,0.6598743796348572,-0.15511685609817505,-9.450838088989258,2.4596102237701416,-0.06586293876171112,0.048549652099609375,0.0567215196788311
1740482273.3045645,0.04066314920783043,0.0039053643122315407,0.6599748730659485,-0.13846375048160553,-9.436531066894531,2.4741837978363037,0.08306612074375153,-0.22588342428207397,-0.00439810985699296
1740482273.483522,0.04064387455582619,0.003920834977179766,0.6600658893585205,-0.09570517390966415,-9.474529266357422,2.4998748302459717,-0.21955889463424683,-0.1597147434949875,0.056510116904973984
1740482273.7416754,0.04062642529606819,0.003934839740395546,0.6601482033729553,-0.10737291723489761,-9.414718627929688,2.3361308574676514,0.23557719588279724,-0.05721241235733032,-0.12570294737815857
1740482273.9401245,0.040992069989442825,0.0038582279812544584,0.6905263066291809,-0.09552619606256485,-9.445663452148438,2.354766368865967,0.3834131360054016,-0.1523762345314026,-0.006893126759678125
1740482274.1331172,0.041217658668756485,0.00385295576415956,0.6968618631362915,-0.1073397845029831,-9.476580619812012,2.3099775314331055,0.0830395370721817,-0.028394296765327454,0.05495874211192131
1740482274.3155956,0.04152354970574379,0.003851649584248662,0.6989656090736389,-0.10515450686216354,-9.453025817871094,2.447568416595459,-0.06808606535196304,-0.09215590357780457,0.025202756747603416
1740482274.4986002,0.04163200035691261,0.0038417235482484102,0.6991538405418396,-0.10753727704286575,-9.455449104309082,2.462064743041992,0.052012380212545395,-0.12188342213630676,0.05458052083849907
1740482274.693677,0.04173924773931503,0.003850590204820037,0.6992815732955933,-0.09326605498790741,-9.46728229522705,2.4523234367370605,0.05357414111495018,0.0016228636959567666,-0.004768736194819212
1740482274.8793375,0.04183100536465645,0.0038511292077600956,0.6996635794639587,-0.1098821610212326,-9.44823169708252,2.423792839050293,0.1444922685623169,-0.05923249572515488,-0.09540224075317383
1740482275.0763488,0.041893843561410904,0.0038490919396281242,0.7002825140953064,-0.11233936250209808,-9.434074401855469,2.485609292984009,0.05204405635595322,-0.2129104733467102,-0.09571955353021622
1740482275.2616177,0.04193304106593132,0.003847382962703705,0.7004764676094055,-0.1170988604426384,-9.448371887207031,2.483154773712158,-0.03873074799776077,-0.05523272603750229,-0.03487277030944824
1740482275.4667969,0.04196633771061897,0.003845852566882968,0.7006083726882935,-0.09801393002271652,-9.460110664367676,2.4330718517303467,-0.15929488837718964,-0.05082797259092331,0.02347109094262123
1740482275.712575,0.04199621081352234,0.003844469552859664,0.7007223963737488,-0.13846716284751892,-9.453121185302734,2.442582130432129,-0.011798142455518246,-0.17164142429828644,0.08116772770881653
1740482275.8833275,0.04202321916818619,0.003843217622488737,0.7008249759674072,-0.12180028110742569,-9.448261260986328,2.423407793045044,-0.06790149211883545,-0.012870664708316326,-0.09774018079042435
1740482276.0789115,0.042047660797834396,0.0038420846685767174,0.700917661190033,-0.09082906693220139,-9.445723533630371,2.395030975341797,0.05027634650468826,-0.10241265594959259,0.020514344796538353
1740482276.256272,0.042106207460165024,0.003835630603134632,0.7190666794776917,-0.10525859147310257,-9.429299354553223,2.4992587566375732,0.11005988717079163,-0.10389256477355957,0.0202284287661314
1740482276.4433093,0.04224282503128052,0.003810746595263481,0.7230907082557678,-0.1431371420621872,-9.498194694519043,2.354227304458618,-0.12922441959381104,-0.04210096597671509,-0.06845279783010483
1740482276.6372678,0.042290326207876205,0.003785789245739579,0.7262353301048279,-0.14076344668865204,-9.462515830993652,2.373555898666382,-0.03778812289237976,0.08342211693525314,-0.03813531622290611
1740482276.8221874,0.04224203899502754,0.003776923520490527,0.7276774644851685,-0.15274611115455627,-9.43407917022705,2.427931785583496,-0.037876587361097336,0.11304379254579544,-0.03801221027970314
1740482277.0430663,0.04224308952689171,0.0037957297172397375,0.7278791666030884,-0.1004057228565216,-9.44819450378418,2.428008794784546,0.11161275953054428,0.020737575367093086,-0.009097106754779816
1740482277.256755,0.042261116206645966,0.0038044441025704145,0.7280738949775696,-0.09089316427707672,-9.452930450439453,2.4303863048553467,0.13927483558654785,-0.10281750559806824,0.01982036791741848
1740482277.5339437,0.04227299615740776,0.0038121514953672886,0.7282106876373291,-0.11946697533130646,-9.453067779541016,2.451784372329712,-0.04156702011823654,-0.22440066933631897,-0.0711120069026947
1740482277.8223157,0.042283207178115845,0.0038191054482012987,0.7283296585083008,-0.10993635654449463,-9.445867538452148,2.439896583557129,0.17026002705097198,-0.0050649321638047695,-0.01238610502332449
1740482278.0779202,0.04229237884283066,0.0038253976963460445,0.7284367680549622,-0.10753808915615082,-9.448202133178711,2.4207990169525146,0.19828057289123535,-0.004130557179450989,0.1380595564842224
1740482278.2638323,0.04230067506432533,0.003831092966720462,0.7285336256027222,-0.11471176147460938,-9.464914321899414,2.4347565174102783,-0.011702511459589005,0.026812681928277016,0.04819129407405853
1740482278.5963361,0.04230818524956703,0.0038362485356628895,0.7286213040351868,-0.08137454837560654,-9.450445175170898,2.4013164043426514,0.04852677881717682,0.09457026422023773,0.01641317829489708
1740482278.8854778,0.042314980179071426,0.003840915160253644,0.7287006378173828,-0.1360822170972824,-9.457798957824707,2.411134719848633,0.07836507260799408,0.03576761856675148,-0.01498357392847538
1740482279.1719022,0.04232113063335419,0.003845139406621456,0.7287724614143372,-0.10522288084030151,-9.448274612426758,2.4634411334991455,-0.04478994011878967,-0.17726075649261475,0.10342194885015488
1740482279.4751995,0.04232669994235039,0.0038489634171128273,0.7288374900817871,-0.1171160340309143,-9.453065872192383,2.458609104156494,0.04666415974497795,0.07461872696876526,0.16317118704319
1740482279.831665,0.04233174026012421,0.0038524249102920294,0.7288963794708252,-0.1289747953414917,-9.431598663330078,2.4227917194366455,0.258172869682312,-0.13541944324970245,-0.08023141324520111
1740482280.1990588,0.04233630374073982,0.0038555581122636795,0.7289496660232544,-0.11465325206518173,-9.462432861328125,2.3847506046295166,0.19846779108047485,0.1449376791715622,0.09916391223669052
1740482280.5351934,0.04234043508768082,0.003858394455164671,0.7289978861808777,-0.09806295484304428,-9.443414688110352,2.429847240447998,0.020510470494627953,0.2063935548067093,-0.10925789177417755
1740482280.8497136,0.04234417527914047,0.003860961878672242,0.7290415167808533,-0.08382700383663177,-9.414859771728516,2.463210344314575,-0.0457460954785347,-0.10833955556154251,0.12946578860282898
1740482281.18952,0.042347557842731476,0.0038632857613265514,0.7290810346603394,-0.1171775534749031,-9.462630271911621,2.484300136566162,-0.014255352318286896,-0.017593953758478165,0.04034826159477234
1740482281.4901743,0.04235062375664711,0.003865389619022608,0.7291168570518494,-0.15757398307323456,-9.443624496459961,2.441349983215332,0.045045237988233566,0.015683047473430634,0.09778912365436554
1740482281.807908,0.042353395372629166,0.003867293940857053,0.7291492223739624,-0.06714250147342682,-9.493297576904297,2.422483444213867,0.16382375359535217,0.3008030951023102,0.36844712495803833
1740482282.1874616,0.0423557348549366,0.0038768243975937366,0.799992561340332,-0.11218485981225967,-9.478915214538574,2.2988500595092773,0.16454316675662994,-0.1609017550945282,-0.023785976693034172
1740482282.5649674,0.04276781901717186,0.003985089715570211,0.8113903999328613,-0.09333442151546478,-9.457703590393066,2.4415040016174316,0.07463882118463516,-0.06851976364850998,0.007040814496576786
1740482282.8735108,0.04290404170751572,0.004024316556751728,0.8143764138221741,-0.10282459110021591,-9.462448120117188,2.417651414871216,0.0450785793364048,0.05464506149291992,0.0376245342195034
1740482283.1757486,0.042981959879398346,0.004057472571730614,0.8147821426391602,-0.10285040736198425,-9.45771598815918,2.4342174530029297,0.0161146093159914,0.08465411514043808,0.007410144899040461
1740482283.428395,0.04304691031575203,0.00408719340339303,0.8149216175079346,-0.11010154336690903,-9.44124984741211,2.524564743041992,-0.13746100664138794,-0.1646403819322586,0.06668851524591446
1740482283.6451027,0.04310500994324684,0.004114061128348112,0.8150205612182617,-0.06479758024215698,-9.4528226852417,2.43406343460083,-0.1399269849061966,-0.4105760157108307,0.12613970041275024
1740482283.8383484,0.043157514184713364,0.004138377029448748,0.8151067495346069,-0.05767637863755226,-9.455184936523438,2.438664436340332,0.1346059888601303,-0.06670127809047699,0.03538796678185463
1740482284.0365531,0.043205033987760544,0.0041603874415159225,0.8151842355728149,-0.06002729758620262,-9.471790313720703,2.4051475524902344,-0.016264744102954865,-0.1912935972213745,-0.08543026447296143
1740482284.219243,0.043176259845495224,0.004178282804787159,0.8329240679740906,-0.12902036309242249,-9.498260498046875,2.424476146697998,0.04405911639332771,-0.22066494822502136,-0.08579029887914658
1740482284.493677,0.043173886835575104,0.004192040767520666,0.8386584520339966,-0.08147778362035751,-9.467171669006348,2.440887928009033,0.0721321776509285,-0.13038238883018494,0.12444031238555908
1740482284.6778257,0.04330136254429817,0.004174456000328064,0.8441915512084961,-0.07201900333166122,-9.43390941619873,2.4933483600616455,0.16588300466537476,0.027016600593924522,-0.025006569921970367
1740482284.8705635,0.04338770732283592,0.004174939356744289,0.8481413722038269,-0.08382999151945114,-9.331385612487793,2.412203311920166,0.438529908657074,-0.00268517155200243,-0.2061813324689865
1740482285.0647345,0.04400724917650223,0.004260349087417126,0.855502188205719,-0.043374624103307724,-9.4479398727417,2.4124343395233154,0.08351176232099533,0.5249931812286377,-0.3219093978404999
1740482285.2484078,0.04457523673772812,0.004451272077858448,0.865646243095398,-0.09562292695045471,-9.464646339416504,2.343484878540039,0.07631797343492508,0.3350527584552765,0.12688452005386353
1740482285.440935,0.044977620244026184,0.004491858184337616,0.8736608624458313,-0.09088451415300369,-9.488483428955078,2.3625824451446533,0.10471218824386597,0.08773690462112427,0.09549301117658615
1740482285.6379812,0.04525395482778549,0.004598640836775303,0.8791771531105042,-0.08855506777763367,-9.46944522857666,2.378763198852539,-0.01364884339272976,0.3027219772338867,0.03707507997751236
1740482285.817848,0.04547387361526489,0.004614577628672123,0.8823996186256409,-0.10287146270275116,-9.467208862304688,2.424168109893799,0.07783238589763641,0.15066783130168915,-0.14396946132183075
1740482286.005139,0.04562884196639061,0.00462350994348526,0.8841859102249146,-0.10047750920057297,-9.450507164001465,2.4122800827026367,0.0746937170624733,0.08683371543884277,0.0655975490808487
1740482286.1874723,0.04575170949101448,0.004650760442018509,0.8856157064437866,-0.09329051524400711,-9.462340354919434,2.3839805126190186,-0.014725778251886368,-0.004479910247027874,-0.05444258823990822
1740482286.3763776,0.04595694690942764,0.00466177286580205,0.8874397873878479,-0.10289813578128815,-9.443455696105957,2.452852964401245,-0.07540290802717209,-0.12857964634895325,-0.11483365297317505
1740482286.5650465,0.0460679791867733,0.004664832726120949,0.8876987099647522,-0.09816960990428925,-9.445838928222656,2.4645097255706787,-0.04426836594939232,0.20671524107456207,0.007735084276646376
1740482286.7414937,0.046157095581293106,0.004667175002396107,0.8878785967826843,-0.09342731535434723,-9.445828437805176,2.4691107273101807,-0.1033233255147934,0.35494527220726013,-0.04942105710506439
1740482286.9352758,0.04623635113239288,0.004669242072850466,0.8880346417427063,-0.11003740131855011,-9.448199272155762,2.4358246326446533,0.07472021132707596,0.2532695531845093,0.011582049541175365
1740482287.1259944,0.046307917684316635,0.004671107046306133,0.8881750702857971,-0.08381794393062592,-9.459955215454102,2.402693033218384,-0.10065858066082001,0.3668949007987976,-0.19251684844493866
1740482287.3122158,0.046372681856155396,0.004672794137150049,0.8883020281791687,-0.11476936936378479,-9.474377632141113,2.4192588329315186,-0.008709895424544811,0.5924572944641113,-0.21569055318832397
1740482287.5065258,0.046431299299001694,0.004674321506172419,0.8884170055389404,-0.11009934544563293,-9.448286056518555,2.4809212684631348,0.16339518129825592,-0.01396053284406662,-0.0056664058938622475
1740482287.6966743,0.05003076791763306,0.004677290562540293,0.9013509154319763,-0.11480032652616501,-9.448193550109863,2.4284613132476807,0.1638578325510025,0.016613608226180077,-0.035508230328559875
1740482287.8903298,0.050683632493019104,0.004669759888201952,0.9070720672607422,-0.1052374541759491,-9.440973281860352,2.402538776397705,-0.10490269213914871,0.0795784667134285,-0.1540261059999466
1740482288.1464968,0.05126774311065674,0.004697676748037338,0.9121088981628418,-0.11000167578458786,-9.452885627746582,2.400007486343384,0.044764239341020584,0.07899148762226105,-0.09466901421546936
1740482288.332089,0.05170270800590515,0.004706606734544039,0.9155527949333191,-0.11006104201078415,-9.467238426208496,2.4354398250579834,0.043284669518470764,0.10791793465614319,0.02540193498134613
1740482288.5287204,0.05199441313743591,0.004716763272881508,0.9169811010360718,-0.09346430003643036,-9.457754135131836,2.4830679893493652,0.014271093532443047,0.13966545462608337,-0.03427652642130852
1740482288.7181318,0.0522015206515789,0.004721979610621929,0.9188953042030334,-0.11003781855106354,-9.4505615234375,2.4285380840301514,0.013340743258595467,0.13957664370536804,0.05569661408662796
1740482288.907222,0.05275139957666397,0.004722083453088999,0.9224774837493896,-0.09101011604070663,-9.450484275817871,2.423628807067871,-0.105283223092556,0.20143695175647736,-0.06346260011196136
1740482289.1090972,0.053682729601860046,0.004717996809631586,0.9266161322593689,-0.1433909386396408,-9.453110694885254,2.459292411804199,0.07493618130683899,0.3559160530567169,0.08656064420938492
1740482289.325254,0.054011549800634384,0.004675977863371372,0.932096540927887,-0.11964759230613708,-9.424509048461914,2.487668991088867,-0.1321699470281601,0.29545968770980835,-0.27276846766471863
1740482289.5038118,0.0543205700814724,0.00464272778481245,0.9375844597816467,-0.06724397838115692,-9.417092323303223,2.437817335128784,0.1370304375886917,0.3263762593269348,-0.09375544637441635
1740482289.6943972,0.05543957278132439,0.004654293414205313,0.9427842497825623,-0.13385769724845886,-9.433981895446777,2.4377403259277344,-0.015208253636956215,0.23186592757701874,-0.03369077667593956
1740482289.8829317,0.056517504155635834,0.004639365244656801,0.9476591944694519,-0.09339674562215805,-9.469544410705566,2.425929546356201,0.19551128149032593,0.2945794463157654,0.025783374905586243
1740482290.1392596,0.057043276727199554,0.004582283552736044,0.9530434012413025,-0.090997613966465,-9.462324142456055,2.3947131633758545,-0.07413586974143982,0.20087304711341858,-0.18356812000274658
1740482290.3296232,0.05811513215303421,0.004491051193326712,0.9595842361450195,-0.12905344367027283,-9.448171615600586,2.397244691848755,0.10482079535722733,0.10851740837097168,-0.09479264914989471
1740482290.529705,0.05885161831974983,0.004451454617083073,0.9639070630073547,-0.13621637225151062,-9.44106388092041,2.4065239429473877,-0.07800830900669098,0.10542672127485275,0.0558113232254982
1740482290.7013912,0.05943244323134422,0.004407315980643034,0.9660025835037231,-0.09822551906108856,-9.44346809387207,2.478158950805664,-0.018911993131041527,0.22926272451877594,0.26615434885025024
1740482290.8766894,0.0597028024494648,0.004377400502562523,0.9667007327079773,-0.17437419295310974,-9.431853294372559,2.4971795082092285,-0.10591268539428711,0.10798735916614532,-0.09395357221364975
1740482291.0749311,0.060163501650094986,0.0043475874699652195,0.9682722687721252,0.06825010478496552,-9.44774055480957,2.5113675594329834,0.0714670866727829,0.07530368864536285,0.1450396478176117
1740482291.255647,0.06040359288454056,0.004329709801822901,0.9708008170127869,-0.2718416750431061,-9.46300220489502,2.4327542781829834,-0.21877698600292206,0.6666379570960999,-0.3304639458656311
1740482291.4582067,0.06109776720404625,0.00432239007204771,0.9752420783042908,-0.03635063022375107,-9.39796257019043,2.4518516063690186,-0.4580516517162323,0.05081004649400711,-0.9024578332901001
1740482291.6586795,0.061301082372665405,0.00428308080881834,0.978966474533081,-0.08861096948385239,-9.452788352966309,2.3924124240875244,0.31198811531066895,0.4146813452243805,0.4157279133796692
1740482291.8491642,0.061891525983810425,0.004284986294806004,0.9843909740447998,-0.11005372554063797,-9.45054817199707,2.4258525371551514,-0.01140716765075922,0.20372352004051208,-0.36368271708488464
1740482292.1556196,0.062454983592033386,0.004266769625246525,0.9901289939880371,-0.01500856876373291,-9.528959274291992,2.5017035007476807,-0.16540536284446716,0.13822542130947113,-0.15355278551578522
1740482292.4236171,0.06326822191476822,0.0042680399492383,0.9977689385414124,-0.1361720860004425,-9.47912311553955,2.382979154586792,-0.25906771421432495,-0.048795219510793686,-0.004229001235216856
1740482292.7510538,0.06425592303276062,0.004240412265062332,1.0034749507904053,-0.07441937178373337,-9.486187934875488,2.449320077896118,0.03963480144739151,-0.17338645458221436,0.0838613286614418
1740482292.9777427,0.06450920552015305,0.004269130527973175,1.0080076456069946,0.011051703244447708,-9.38851547241211,2.5751771926879883,-0.10877446085214615,0.13509473204612732,0.11604150384664536
1740482293.1692426,0.06557993590831757,0.004283216781914234,1.014083981513977,0.08256995677947998,-9.426111221313477,2.4441797733306885,-0.2297893911600113,0.10254978388547897,0.11632367223501205
1740482293.370247,0.06660357117652893,0.004347519017755985,1.0232257843017578,-0.0505405068397522,-9.516905784606934,2.37070631980896,0.05238146707415581,0.6669866442680359,-0.36154404282569885
1740482293.5722027,0.06799055635929108,0.00432542571797967,1.03249990940094,-0.1148115023970604,-9.443353652954102,2.399160146713257,-0.017790066078305244,0.25888746976852417,0.1463099867105484
1740482293.817169,0.06948349624872208,0.004307718947529793,1.0404958724975586,-0.08619764447212219,-9.464555740356445,2.3347349166870117,0.37777790427207947,0.5398314595222473,-0.003721375949680805
1740482294.1037037,0.07110342383384705,0.004347142763435841,1.0497181415557861,-0.06726588308811188,-9.40035343170166,2.4131946563720703,-0.07650398463010788,0.04316071420907974,-0.15446367859840393
1740482294.2977161,0.07243475317955017,0.004348588641732931,1.0586110353469849,-0.062432799488306046,-9.443082809448242,2.353755474090576,0.0439857579767704,-0.07958152145147324,-0.24554026126861572
1740482294.4943593,0.07353148609399796,0.004369622562080622,1.0660743713378906,-0.06726804375648499,-9.457547187805176,2.430145502090454,0.37244611978530884,0.22907382249832153,0.23457098007202148
1740482294.699819,0.07478824257850647,0.0044187214225530624,1.0726425647735596,-0.10290755331516266,-9.431411743164062,2.3993141651153564,0.491176575422287,0.6908442974090576,0.7162935137748718
1740482294.8855612,0.0766541138291359,0.004418971482664347,1.078424334526062,0.06372427195310593,-9.247231483459473,2.2749106884002686,0.16967660188674927,-0.23089468479156494,-0.8165804147720337
1740482295.0781813,0.0775865912437439,0.004351389594376087,1.0830416679382324,-0.1076119989156723,-9.469405174255371,2.341944694519043,0.5832337737083435,0.5064030885696411,0.4150800108909607
1740482295.2599335,0.07845108211040497,0.004330957308411598,1.0868338346481323,-0.09343241155147552,-9.407573699951172,2.40836238861084,0.1616951823234558,-0.17374633252620697,-0.09658822417259216
1740482295.4543347,0.07968634366989136,0.0043166871182620525,1.0898829698562622,-0.1719345897436142,-9.453067779541016,2.4035301208496094,0.042499203234910965,-0.019563449546694756,-0.09531269967556
1740482295.6676972,0.08011778444051743,0.004307238385081291,1.0927127599716187,-0.10545511543750763,-9.42923641204834,2.505765199661255,-0.01884729228913784,-0.020594755187630653,-0.0051222266629338264
1740482295.8637483,0.08032809942960739,0.004293433390557766,1.0947896242141724,-0.09114260226488113,-9.452939987182617,2.4748568534851074,-0.07578729838132858,0.22798340022563934,-0.0935404822230339
1740482296.113837,0.08103287220001221,0.004283166956156492,1.098588228225708,-0.05544756352901459,-9.488502502441406,2.4580600261688232,-0.05060824751853943,-0.14569613337516785,0.0243119727820158
1740482296.3110077,0.08223484456539154,0.004236971028149128,1.104315161705017,-0.20291011035442352,-9.462764739990234,2.4391167163848877,-0.07819958031177521,-0.3286471366882324,-0.30636316537857056
1740482296.506836,0.08342700451612473,0.0042150188237428665,1.1092896461486816,-0.16727621853351593,-9.42939567565918,2.481989860534668,0.07388468831777573,0.16633707284927368,-0.06447289139032364
1740482296.7057319,0.08363635838031769,0.00420712074264884,1.1153000593185425,-0.30267345905303955,-9.467606544494629,2.3129518032073975,0.37917792797088623,0.5394027829170227,-0.15369296073913574
1740482296.9043117,0.08508068323135376,0.004205639474093914,1.1224303245544434,-0.08404548466205597,-9.474390029907227,2.498478889465332,0.0982469916343689,0.28510788083076477,0.47575950622558594
1740482297.094797,0.08552857488393784,0.004212973173707724,1.12881338596344,-0.09594856947660446,-9.414931297302246,2.5128982067108154,0.28404608368873596,0.2591896653175354,0.055122796446084976
1740482297.2718623,0.08618398010730743,0.004242735914885998,1.1348613500595093,-0.1479533314704895,-9.457430839538574,2.244079351425171,-0.40730300545692444,-0.11306823045015335,-0.33391833305358887
1740482297.45194,0.08691990375518799,0.00424084672704339,1.1399359703063965,-0.059829745441675186,-9.69751262664795,2.172983407974243,0.6983909010887146,-1.0380977392196655,-0.2831719219684601
1740482297.6491046,0.08684435486793518,0.004406672436743975,1.140588641166687,0.07993637770414352,-9.343098640441895,2.61474871635437,0.7927423119544983,-1.5198614597320557,1.4529627561569214
1740482297.8893762,0.08633071929216385,0.004444623365998268,1.14037024974823,-0.12688276171684265,-9.479293823242188,2.5006253719329834,-0.8263940215110779,0.16345517337322235,-0.36081305146217346
1740482298.1460586,0.08633697032928467,0.00425855815410614,1.1406787633895874,-0.010126829147338867,-9.209542274475098,2.358125686645508,-1.1734979152679443,-1.2350999116897583,-0.06694845110177994
1740482298.3357174,0.08331027626991272,0.004427498672157526,1.1415717601776123,-0.019888926297426224,-9.502809524536133,2.5336802005767822,0.09965402632951736,0.25358766317367554,0.2956312298774719
1740482298.5197043,0.08275020867586136,0.0045455452054739,1.143424391746521,-0.0794270932674408,-9.365015983581543,2.593273878097534,-0.023328322917222977,-0.30276599526405334,0.11329636722803116
1740482298.7114608,0.08139655739068985,0.004333250690251589,1.1478828191757202,-0.048440396785736084,-9.4053373336792,2.560295820236206,0.030055753886699677,-0.36782899498939514,0.652495265007019
1740482298.9084897,0.08119823038578033,0.004477078095078468,1.1627494096755981,-0.0337354838848114,-9.359339714050293,2.2081847190856934,0.549544095993042,-0.23802971839904785,0.11137992143630981
1740482299.1048212,0.08120767027139664,0.0044323839247226715,1.1775438785552979,-0.12913042306900024,-9.348135948181152,2.4008445739746094,-0.10968054831027985,-0.4538344740867615,-0.3069232702255249
1740482299.2857466,0.08150424808263779,0.00441158888861537,1.1901957988739014,-0.08415433019399643,-9.410247802734375,2.576784610748291,0.24110718071460724,-0.6138703227043152,0.44045647978782654
1740482299.4724355,0.0816025510430336,0.004408571869134903,1.2025853395462036,0.003980881068855524,-9.445501327514648,2.4888916015625,0.39438095688819885,-0.02560771442949772,0.6528491377830505
1740482299.6631947,0.08163604885339737,0.004483273718506098,1.2145164012908936,0.027846824377775192,-9.492936134338379,2.4319069385528564,0.5162075161933899,-0.42445409297943115,0.26047658920288086
1740482299.8568587,0.0814056545495987,0.004536815453320742,1.2261967658996582,-0.06945803016424179,-9.409527778625488,2.239093065261841,0.3635721206665039,-0.9203906059265137,0.04855121299624443
1740482300.1118867,0.08136854320764542,0.004558615852147341,1.2381054162979126,-0.0791810005903244,-9.483722686767578,2.4104321002960205,0.12909111380577087,-0.2075633406639099,0.05325130373239517
1740482300.3631208,0.08144845813512802,0.004621708299964666,1.2505444288253784,0.07535070925951004,-9.430903434753418,2.4598217010498047,0.33807381987571716,-0.17914511263370514,0.17245376110076904
1740482300.5544944,0.08143497258424759,0.004649071488529444,1.2628586292266846,-0.1223994791507721,-9.391582489013672,2.7096970081329346,0.1669539213180542,-0.9945189952850342,1.2782829999923706
1740482300.745258,0.08152893930673599,0.004668737296015024,1.2730540037155151,-0.11954383552074432,-9.366985321044922,2.321923017501831,0.3135284185409546,-0.8840762972831726,-0.7906648516654968
1740482300.943566,0.08161282539367676,0.004817471373826265,1.2876921892166138,-0.24091041088104248,-9.50798225402832,2.367327928543091,0.22284576296806335,0.009771065786480904,-0.09592979401350021
1740482301.1419694,0.0816180631518364,0.004872455261647701,1.2980656623840332,-0.24798814952373505,-9.496017456054688,2.324608564376831,0.22859133780002594,0.5687445402145386,-0.15296773612499237
1740482301.3375301,0.0817376896739006,0.004959477577358484,1.308038353919983,-0.06253129243850708,-9.414566993713379,2.3934037685394287,0.3070067763328552,-0.05611627548933029,0.35314807295799255
1740482301.5339255,0.08174405246973038,0.005008329637348652,1.3169070482254028,-0.04111352935433388,-9.445449829101562,2.391103506088257,0.1594906896352768,-0.17755623161792755,0.023271409794688225
1740482301.7196639,0.08163920789957047,0.005048469174653292,1.3248138427734375,-0.13876301050186157,-9.460223197937012,2.4741640090942383,0.0682351291179657,-0.3023872971534729,-0.007026462350040674
1740482301.9262948,0.08166159689426422,0.005140958819538355,1.3329274654388428,-0.20276635885238647,-9.493391036987305,2.2837276458740234,-0.26432526111602783,-0.45957151055336,-0.036548733711242676
1740482302.2157261,0.08166532218456268,0.005184932611882687,1.339730978012085,0.004045445472002029,-9.48818588256836,2.407438278198242,0.04033462330698967,-0.23989105224609375,-0.15652558207511902
1740482302.5189278,0.08172526210546494,0.00518201757222414,1.3441359996795654,-0.14112424850463867,-9.455421447753906,2.4526116847991943,-0.050680845975875854,-0.14829005300998688,-0.035745251923799515
1740482302.7362623,0.08174799382686615,0.005233383737504482,1.3469923734664917,-0.1459224969148636,-9.445984840393066,2.4883522987365723,0.04151715710759163,-0.11552120745182037,-0.1558665931224823
1740482302.9356682,0.08180326968431473,0.005250016693025827,1.3511433601379395,-0.1007217988371849,-9.47441577911377,2.490807056427002,-0.054203834384679794,-0.15020111203193665,0.2641194462776184
1740482303.1286502,0.08184923231601715,0.005252343602478504,1.357568383216858,-0.12453613430261612,-9.41977596282959,2.5146596431732178,-0.8078961372375488,-0.7082273364067078,-0.0656600371003151
1740482303.3339942,0.08199145644903183,0.005300797987729311,1.3658679723739624,-0.08894392102956772,-9.443575859069824,2.571413278579712,-0.08658214658498764,-0.46090319752693176,0.20261655747890472
1740482303.53158,0.0820891410112381,0.0053831893019378185,1.3755290508270264,-0.05788622796535492,-9.433721542358398,2.4595136642456055,0.39215707778930664,-0.4616753160953522,0.44057759642601013
1740482303.7070174,0.08224599063396454,0.00544991809874773,1.386548638343811,-0.14366663992404938,-9.49374771118164,2.566427230834961,-0.680080771446228,0.4047628343105316,0.08956265449523926
1740482303.8948507,0.08260945230722427,0.00544698303565383,1.3964803218841553,0.027639033272862434,-9.559870719909668,2.5692667961120605,-0.5081641674041748,1.9319623708724976,-0.5027087330818176
1740482304.0873718,0.08381465822458267,0.005759557709097862,1.4089263677597046,0.018170800060033798,-9.55741024017334,2.5166521072387695,0.7278070449829102,3.569913148880005,0.5504545569419861
1740482304.2718565,0.08921901881694794,0.005869946908205748,1.4211395978927612,-0.13592760264873505,-9.50944995880127,2.090914011001587,1.6907144784927368,-0.3000478446483612,0.2563782036304474
1740482304.5195181,0.0956130400300026,0.005928367841988802,1.435425043106079,-0.0792403370141983,-9.395613670349121,2.4191720485687256,0.3491109311580658,0.3516034781932831,-0.3645378351211548
1740482304.7463737,0.09875689446926117,0.005999442655593157,1.4456974267959595,-0.10297504812479019,-9.4456148147583,2.376375913619995,0.044795382767915726,0.2865176498889923,-0.15378619730472565
1740482304.9699223,0.10086534172296524,0.006039690226316452,1.4533988237380981,-0.07936640828847885,-9.457743644714355,2.5263164043426514,-0.10627470910549164,0.3785606026649475,-0.03274931758642197
1740482305.1787214,0.10205245018005371,0.006102034356445074,1.458587646484375,-0.038884323090314865,-9.3860502243042,2.471170425415039,0.1333838403224945,0.3769649267196655,0.02621317468583584
1740482305.3952823,0.10314566642045975,0.006269549485296011,1.4659254550933838,-0.06741040199995041,-9.443310737609863,2.473933219909668,0.16689738631248474,0.5041456818580627,-0.12312967330217361
1740482305.600689,0.1052265390753746,0.006363000255078077,1.4729026556015015,-0.045889776200056076,-9.431120872497559,2.371389627456665,0.07848338037729263,0.5964450240135193,-0.24226465821266174
1740482305.7968726,0.10745032131671906,0.006494077388197184,1.4809492826461792,-0.07446017861366272,-9.426508903503418,2.3976969718933105,0.13669627904891968,0.47258275747299194,-0.15317761898040771
1740482306.0014899,0.10904637724161148,0.006562212482094765,1.488840103149414,-0.13638709485530853,-9.441102981567383,2.4498493671417236,-0.16694293916225433,0.25333714485168457,-0.1231641173362732
1740482306.21889,0.11112426966428757,0.0067619578912854195,1.4965718984603882,-0.05540405586361885,-9.414472579956055,2.3665575981140137,0.07462996989488602,0.37775588035583496,-0.093487948179245
1740482306.4726872,0.11389996856451035,0.006794589571654797,1.5053421258926392,-0.09588871151208878,-9.490886688232422,2.4046757221221924,0.10782231390476227,0.842535138130188,-0.001208661706186831
1740482306.6480336,0.11614174395799637,0.006999417673796415,1.517896294593811,-0.09360317885875702,-9.448161125183105,2.4783802032470703,-0.10372324287891388,0.7178955078125,-0.031013093888759613
1740482306.839283,0.11781976372003555,0.007166976109147072,1.5279321670532227,-0.13179627060890198,-9.493746757507324,2.5854475498199463,-0.28139498829841614,0.8428159952163696,-0.179565891623497
1740482307.081475,0.12097594887018204,0.007237683981657028,1.53731369972229,-0.09843237698078156,-9.46254825592041,2.523322820663452,-0.36961424350738525,0.8736242055892944,-0.3589945137500763
1740482307.3062274,0.12428977340459824,0.007333307061344385,1.552417278289795,-0.14840848743915558,-9.584199905395508,2.5424203872680664,0.17417563498020172,1.4319870471954346,-0.08833514153957367
1740482307.6549566,0.12920117378234863,0.0074392519891262054,1.5692964792251587,-0.12221699953079224,-9.510236740112305,2.516113042831421,-0.8211588859558105,0.6559209227561951,-0.5382704138755798
1740482307.8951387,0.1357366144657135,0.00752867991104722,1.5949517488479614,-0.08636752516031265,-9.319374084472656,2.3926339149475098,0.1438799351453781,0.7846421003341675,-0.5413925647735596
1740482308.105698,0.13964030146598816,0.007644483353942633,1.6077780723571777,-0.1766587346792221,-9.448088645935059,2.30458664894104,0.19334112107753754,0.4072687029838562,0.05610344186425209
1740482308.294762,0.14196909964084625,0.0077064563520252705,1.616851568222046,-0.07935433834791183,-9.471945762634277,2.4901137351989746,-0.047277335077524185,0.09863656759262085,-0.1844380795955658
1740482308.4984095,0.14382219314575195,0.007755729835480452,1.6229130029678345,-0.04595860838890076,-9.459755897521973,2.406668186187744,-0.19603094458580017,0.2525230050086975,-0.24303269386291504
1740482308.7542906,0.1448197364807129,0.007839873433113098,1.6283334493637085,-0.07928117364645004,-9.459895133972168,2.420933485031128,0.13072176277637482,0.2815215587615967,0.14562514424324036
1740482308.9404023,0.1457434594631195,0.007897017523646355,1.633476734161377,-0.12451586872339249,-9.48393440246582,2.4567508697509766,-0.5852339267730713,0.7461209893226624,-0.05896927788853645
1740482309.1606581,0.1476728916168213,0.007947459816932678,1.639583706855774,-0.0793323740363121,-9.495695114135742,2.4613521099090576,-0.3441431522369385,0.4077078104019165,-0.3315824866294861
1740482309.3582478,0.14899350702762604,0.008021711371839046,1.6455484628677368,-0.07215957343578339,-9.4718017578125,2.43282151222229,-0.019028574228286743,0.25067076086997986,0.05610162764787674
1740482309.544362,0.15054649114608765,0.00806774478405714,1.6496273279190063,-0.10553506016731262,-9.462489128112793,2.485050678253174,0.6930999755859375,-0.03145211562514305,0.7114472985267639
1740482309.7270815,0.15160495042800903,0.008100870996713638,1.6529220342636108,-0.07705718278884888,-9.424421310424805,2.5470213890075684,-0.5254617929458618,0.16029655933380127,-0.4520982801914215
1740482309.9192882,0.15295487642288208,0.008125761523842812,1.6592872142791748,-0.18632838129997253,-9.41976547241211,2.418555974960327,0.47940123081207275,-0.6195328235626221,0.5292956829071045
1740482310.1132345,0.1536778062582016,0.008131640031933784,1.6670022010803223,-0.06746502220630646,-9.519510269165039,2.4827499389648438,0.22224299609661102,-0.08705044537782669,-0.2164919674396515
1740482310.3052578,0.1539822816848755,0.00817500613629818,1.672971248626709,-0.03884343430399895,-9.543092727661133,2.4160244464874268,0.21572785079479218,0.15431749820709229,0.474430650472641
1740482310.4913769,0.1545901894569397,0.008247110061347485,1.6817492246627808,-0.09593857824802399,-9.44802474975586,2.413569927215576,0.15103363990783691,-0.3423738181591034,0.47206100821495056
1740482310.6762962,0.15569071471691132,0.0083002345636487,1.6904056072235107,-0.03641248866915703,-9.419215202331543,2.39017915725708,0.0432584248483181,0.1296720653772354,-0.18464098870754242
1740482310.8752139,0.15701860189437866,0.00833195075392723,1.6991521120071411,-0.20071528851985931,-9.486639022827148,2.4967844486236572,-0.32223108410835266,0.21633365750312805,0.17703263461589813
1740482311.1331196,0.15842364728450775,0.008356897160410881,1.7089835405349731,-0.18391160666942596,-9.486385345458984,2.39247989654541,0.04002933204174042,0.0654916986823082,0.02491622231900692
1740482311.334898,0.16051532328128815,0.008383190259337425,1.7213397026062012,-0.1244891807436943,-9.426721572875977,2.4280662536621094,0.16323740780353546,0.34496015310287476,-0.004091308452188969
1740482311.5443044,0.16139671206474304,0.00841457862406969,1.7292653322219849,-0.12198637425899506,-9.48369026184082,2.3378727436065674,-0.022340202704072,-0.521442711353302,-0.21779675781726837
1740482311.717287,0.16211742162704468,0.008462641388177872,1.735830307006836,-0.06270293146371841,-9.419465065002441,2.4755401611328125,0.09218743443489075,-0.37189677357673645,0.3522171974182129
1740482311.9035916,0.16237151622772217,0.008486160077154636,1.7381349802017212,-0.12922200560569763,-9.452864646911621,2.3969268798828125,0.24793709814548492,-0.18332423269748688,0.05273391678929329
1740482312.1076653,0.1625346839427948,0.008584056049585342,1.741745114326477,-0.07699692249298096,-9.448073387145996,2.472777843475342,0.1266111135482788,-0.0003894274996127933,0.23405921459197998
1740482312.2885957,0.16267479956150055,0.00861307978630066,1.7462868690490723,-0.08163682371377945,-9.45744800567627,2.3873395919799805,-0.021087611094117165,-0.15248923003673553,-0.09596996009349823
1740482312.4798381,0.16294163465499878,0.008593419566750526,1.751534342765808,-0.05552408844232559,-9.462238311767578,2.4422545433044434,-0.2011522650718689,-0.1519416719675064,-0.12521426379680634
1740482312.7142441,0.16303996741771698,0.008757349103689194,1.7553119659423828,-0.04372470825910568,-9.448050498962402,2.5135042667388916,0.006442549172788858,-0.2152455896139145,0.08351368457078934
1740482312.9304204,0.16315563023090363,0.00879469234496355,1.7601213455200195,-0.05081662908196449,-9.39083480834961,2.4705543518066406,0.8153841495513916,-0.33866482973098755,0.3195224702358246
1740482313.2049065,0.16325323283672333,0.008738422766327858,1.7663432359695435,-0.09846635162830353,-9.374454498291016,2.534902572631836,-0.729174017906189,-1.3365458250045776,0.32039037346839905
1740482313.4614453,0.1637018918991089,0.008729261346161366,1.7775793075561523,0.0015667823608964682,-9.433429718017578,2.4252264499664307,0.08612062782049179,-0.5932719707489014,0.6508772373199463
1740482313.6451294,0.16381216049194336,0.008776978589594364,1.7920089960098267,-0.003246505744755268,-9.493073463439941,2.4728548526763916,-0.29504576325416565,-0.5565182566642761,-0.15699243545532227
1740482313.8362048,0.1642294079065323,0.00879728514701128,1.8023515939712524,-0.07700468599796295,-9.417184829711914,2.5017707347869873,-0.36471304297447205,-0.716055154800415,0.5321257710456848
1740482314.0376549,0.16436882317066193,0.008847839199006557,1.813787579536438,-0.22441904246807098,-9.500844955444336,2.4180939197540283,-0.18061041831970215,-0.4372861981391907,0.4128788411617279
1740482314.2212408,0.16447651386260986,0.008888223208487034,1.8256354331970215,0.0015078410506248474,-9.438275337219238,2.4679458141326904,-0.20631693303585052,-0.8043617010116577,-0.21863478422164917
1740482314.413443,0.1645219773054123,0.009078947827219963,1.8400591611862183,-0.11012072116136551,-9.438376426696777,2.3301239013671875,1.059535264968872,-0.7057411670684814,-0.22311365604400635
1740482314.6077347,0.16448871791362762,0.009216198697686195,1.8536428213119507,-0.25747182965278625,-9.310067176818848,2.223210334777832,0.7188177108764648,-0.8675283789634705,0.4370470941066742
1740482314.804953,0.1649358868598938,0.00930735096335411,1.8654669523239136,-0.22249190509319305,-9.287227630615234,2.774728775024414,-0.6262397170066833,-1.6576417684555054,1.4876502752304077
1740482314.9993577,0.16487263143062592,0.009373936802148819,1.881068229675293,-0.2266688197851181,-9.429192543029785,2.3085720539093018,0.44850122928619385,-0.8381665945053101,0.37827715277671814
1740482315.187258,0.1648843139410019,0.009497441351413727,1.8999394178390503,-0.1556449681520462,-9.424748420715332,2.5869014263153076,-1.8713743686676025,-1.0018813610076904,0.3566225469112396
1740482315.3794882,0.1639363318681717,0.009602362290024757,1.9167364835739136,-0.19359923899173737,-9.496126174926758,2.4940223693847656,0.010674807243049145,-0.5529207587242126,-0.5480051040649414
1740482315.5704706,0.1638510823249817,0.009673018008470535,1.9336309432983398,-0.10766652971506119,-9.414437294006348,2.2706847190856934,1.2860702276229858,-0.9613779783248901,0.7641291618347168
1740482315.7550375,0.1636388897895813,0.009803821332752705,1.9485775232315063,-0.13907314836978912,-9.65577507019043,2.638976573944092,-0.8374496102333069,-1.053126573562622,-0.5173100829124451
1740482315.9500868,0.16356317698955536,0.009801901876926422,1.9647728204727173,-0.02448357827961445,-9.497626304626465,2.3325016498565674,1.446561336517334,-0.9229776859283447,-0.01589815318584442
1740482316.1549785,0.1631038337945938,0.00977792777121067,1.9812809228897095,-0.2245175540447235,-9.355711936950684,2.4844346046447754,-1.3807953596115112,-0.9021720290184021,-0.30447468161582947
1740482316.3421214,0.16288763284683228,0.009774195961654186,1.9969791173934937,-0.2385237216949463,-9.4506196975708,2.284950017929077,0.8434692621231079,-0.34053340554237366,0.46930694580078125
1740482316.5755823,0.1625107079744339,0.009739774279296398,2.012662410736084,-0.28615492582321167,-9.424640655517578,2.3156275749206543,-0.2919575572013855,-0.7095481157302856,-0.5476417541503906
1740482316.8284934,0.1623820662498474,0.009803755208849907,2.0255119800567627,-0.11973610520362854,-9.48378849029541,2.401297092437744,-0.20673972368240356,-1.0514538288116455,-0.3698655068874359
1740482317.0091455,0.16218824684619904,0.009796499274671078,2.0374596118927,-0.1839640587568283,-9.4482421875,2.384345769882202,0.0035872976295650005,-0.7747306227684021,-0.15938174724578857
1740482317.1904187,0.1621159315109253,0.009802431799471378,2.045107364654541,-0.1793203055858612,-9.434137344360352,2.481980323791504,-0.05211791396141052,-0.15495117008686066,-0.06592577695846558
1740482317.3891306,0.16208817064762115,0.009772597812116146,2.0517168045043945,-0.1745375692844391,-9.472152709960938,2.450840711593628,0.0008852632017806172,-0.6536562442779541,0.14110277593135834
1740482317.5816443,0.161981001496315,0.009741304442286491,2.059838056564331,-0.15054292976856232,-9.469408988952637,2.303739547729492,0.2729113698005676,-0.37339362502098083,0.29145899415016174
1740482317.7822251,0.16156066954135895,0.009671597741544247,2.0678720474243164,-0.17938096821308136,-9.443737983703613,2.522244453430176,-0.21113494038581848,-0.7167187333106995,0.2015862613916397
1740482317.969749,0.16146184504032135,0.00967821292579174,2.075554132461548,-0.18406903743743896,-9.403181076049805,2.4748473167419434,-0.3624401092529297,-0.902167558670044,0.14125539362430573
1740482318.1682293,0.1614067256450653,0.009687433019280434,2.082632064819336,-0.16725243628025055,-9.495748519897461,2.3489134311676025,0.23869819939136505,-0.8386078476905823,0.28914302587509155
1740482318.3929589,0.16113458573818207,0.009678060188889503,2.0904030799865723,-0.22460100054740906,-9.436776161193848,2.5388875007629395,-0.2722867429256439,-0.7792413234710693,0.2314830869436264
1740482318.5985413,0.16101966798305511,0.009682589210569859,2.099409341812134,-0.21031516790390015,-9.479593276977539,2.5366640090942383,-0.6677291989326477,-0.6597972512245178,0.6534750461578369
1740482318.877216,0.16088713705539703,0.009666532278060913,2.1096889972686768,-0.14126361906528473,-9.52214527130127,2.4940223693847656,-0.39157700538635254,-0.6853398084640503,0.23248304426670074
1740482319.0873282,0.16041114926338196,0.009682346135377884,2.127406597137451,-0.05305825546383858,-9.421526908874512,2.3393261432647705,0.36529654264450073,-0.9265249967575073,-0.28153321146965027
1740482319.28145,0.15974101424217224,0.009683207608759403,2.142237901687622,-0.08184764534235,-9.548201560974121,2.5270767211914062,-0.9611210823059082,-0.6866735219955444,-0.005171597003936768
1740482319.4939065,0.15916436910629272,0.009735219180583954,2.1555497646331787,-0.10556471347808838,-9.352882385253906,2.462728500366211,-0.6848247647285461,-0.9905715584754944,-0.667539656162262
1740482319.8174396,0.1586628556251526,0.009818374179303646,2.1705691814422607,-0.16033902764320374,-9.38406753540039,2.4908742904663086,0.663763165473938,-0.6521124243736267,0.07847850024700165
1740482320.1713073,0.1578717976808548,0.00982682965695858,2.1934454441070557,-0.08651678264141083,-9.355183601379395,2.4532949924468994,-0.7395661473274231,-0.0006286709103733301,-0.3922388553619385
1740482320.4880114,0.1566336303949356,0.009849957190454006,2.220158338546753,-0.10330414772033691,-9.534067153930664,2.567572593688965,-0.9259796142578125,-0.25133833289146423,-0.09296169131994247
1740482320.8608162,0.15631821751594543,0.00985280703753233,2.2406067848205566,-0.005574177950620651,-9.533415794372559,2.4057438373565674,0.5129762887954712,-0.6511823534965515,0.139098659157753
1740482321.2387679,0.15517301857471466,0.009945248253643513,2.263155460357666,-0.0958692729473114,-9.395395278930664,2.3055012226104736,0.5999928116798401,-0.5621227622032166,0.4390262961387634
1740482321.5968673,0.15386997163295746,0.010020622052252293,2.285810708999634,-0.0555008128285408,-9.357319831848145,2.3819682598114014,0.3583327829837799,-0.7779145836830139,0.378917932510376
1740482321.9292207,0.15344586968421936,0.010181660763919353,2.3065857887268066,-0.20540761947631836,-9.400721549987793,2.403212547302246,0.21382197737693787,-0.5283214449882507,0.050959352403879166
1740482322.328996,0.15230028331279755,0.010243255645036697,2.3230690956115723,-0.1698266565799713,-9.436481475830078,2.4840493202209473,-0.05641811713576317,-0.43643006682395935,0.05251241847872734
1740482323.0103793,0.15204204618930817,0.010303585790097713,2.335787773132324,-0.06489764153957367,-9.490509033203125,2.2844109535217285,-0.028783708810806274,-0.5610239505767822,0.1716925948858261
1740482323.674058,0.1512393206357956,0.010354779660701752,2.338636875152588,-0.11518782377243042,-9.441161155700684,2.5362019538879395,0.06623180955648422,-0.12682250142097473,0.0836264118552208
1740482324.1895223,0.15102286636829376,0.010394965298473835,2.3405001163482666,-0.1697092056274414,-9.526786804199219,2.391324520111084,-0.7914270162582397,-0.694510281085968,0.8636389970779419
1740482324.6508772,0.15088686347007751,0.010475533083081245,2.3627889156341553,0.034779682755470276,-9.480963706970215,2.4480011463165283,-0.1517648994922638,-0.41091424226760864,0.4427797496318817
1740482324.9494905,0.14976513385772705,0.010517044924199581,2.3839571475982666,-0.1769220232963562,-9.436402320861816,2.436190366744995,0.06371011584997177,-0.5605564117431641,-0.03860335424542427
1740482325.1776216,0.14965364336967468,0.010626089759171009,2.392841100692749,-0.1531524509191513,-9.441125869750977,2.4552876949310303,0.08473482728004456,-1.059564471244812,0.3484898805618286
1740482325.3834894,0.14896830916404724,0.010674692690372467,2.400432825088501,-0.10081896185874939,-9.464805603027344,2.472238779067993,-0.11773361265659332,-0.6528553366661072,-0.008345934562385082
1740482325.5718486,0.14821940660476685,0.010732647962868214,2.4084632396698,-0.12927572429180145,-9.42657470703125,2.3669328689575195,0.005200142972171307,-0.2833980321884155,-0.006960458122193813
1740482325.7825685,0.14771927893161774,0.010826335288584232,2.4152281284332275,-0.18887197971343994,-9.462733268737793,2.483818531036377,-0.08627990633249283,-0.2523387670516968,0.1435287892818451
1740482325.9794073,0.1473679393529892,0.01087815873324871,2.421135425567627,-0.11985567957162857,-9.457687377929688,2.4575884342193604,-0.08508346229791641,-0.1901523917913437,0.08387455344200134
1740482326.172484,0.1472058892250061,0.010953475721180439,2.4262278079986572,-0.1199447438120842,-9.47686767578125,2.524083137512207,-0.08595259487628937,0.05546647310256958,0.32503920793533325
1740482326.3640676,0.14681817591190338,0.011015093885362148,2.433091878890991,-0.1008133664727211,-9.41477108001709,2.4601967334747314,-0.07892437279224396,0.061536576598882675,-0.21464283764362335
1740482326.5628688,0.14625400304794312,0.011059991084039211,2.4407904148101807,-0.21498727798461914,-9.396053314208984,2.438567876815796,-0.12015368789434433,-0.5018988251686096,0.26227715611457825
1740482326.7500527,0.14608915150165558,0.011162269860506058,2.449007749557495,-0.15796183049678802,-9.415009498596191,2.488420009613037,0.15054208040237427,-0.5321243405342102,0.2610388696193695
1740482326.9481385,0.14542493224143982,0.01123286597430706,2.45951771736145,-0.12461908161640167,-9.483924865722656,2.4696297645568848,0.188357412815094,-0.6489972472190857,-0.42934319376945496
1740482327.1809356,0.14516736567020416,0.011356725357472897,2.4708685874938965,-0.14363600313663483,-9.517265319824219,2.443168878555298,-0.14980871975421906,-0.4714498519897461,0.23255375027656555
1740482327.3992872,0.1431838870048523,0.01144026592373848,2.4822030067443848,-0.01987634226679802,-9.421512603759766,2.3979952335357666,0.01828930154442787,0.6816020607948303,-0.3617238998413086
1740482327.6586485,0.14298096299171448,0.01149874459952116,2.491716146469116,-0.16742496192455292,-9.481626510620117,2.443168878555298,-0.1551043540239334,1.3022713661193848,-0.5076898336410522
1740482327.8561187,0.14420320093631744,0.011578147299587727,2.5034923553466797,0.07053406536579132,-9.468836784362793,2.3957717418670654,-0.23892922699451447,-0.68609219789505,-0.00808337889611721
1740482328.085981,0.14475372433662415,0.011621658690273762,2.5136895179748535,-0.029537774622440338,-9.417019844055176,2.5169506072998047,0.33729287981987,-0.09572827816009521,0.08269311487674713
1740482328.2805772,0.14493994414806366,0.011656714603304863,2.5219686031341553,-0.09139414876699448,-9.369580268859863,2.509586811065674,0.3039197325706482,-0.5611997246742249,-0.00960575696080923
1740482328.4785118,0.14505745470523834,0.011864082887768745,2.5340445041656494,-0.12933465838432312,-9.290925025939941,2.4096519947052,-0.30896487832069397,1.5450104475021362,-0.08604533970355988
1740482328.6760354,0.14514710009098053,0.012034570798277855,2.5474696159362793,-0.1912074089050293,-9.429326057434082,2.4457006454467773,0.06459087878465652,0.3336695432662964,0.5358088612556458
1740482329.2130482,0.14526425302028656,0.012182089500129223,2.563793420791626,-0.07227910310029984,-9.25268268585205,2.435728073120117,-0.2224913090467453,-0.3064654469490051,-1.115621566772461
1740482329.4623623,0.1457124650478363,0.012522910721600056,2.60854172706604,0.04930561035871506,-9.428112983703613,2.2409987449645996,0.6570794582366943,-0.5035876035690308,0.7089353799819946
1740482329.6758995,0.14609527587890625,0.012795097194612026,2.6273624897003174,-0.07217798382043839,-9.433511734008789,2.3597230911254883,0.07234428077936172,-0.032061949372291565,-0.39570748805999756
1740482329.9086769,0.14645008742809296,0.012949029915034771,2.640918493270874,-0.029372546821832657,-9.504850387573242,2.3788976669311523,0.15710878372192383,0.1498347967863083,0.20462068915367126
1740482330.1853008,0.14677481353282928,0.013248988427221775,2.651665449142456,-0.10806017369031906,-9.414892196655273,2.5166423320770264,0.1929147094488144,0.5231613516807556,-0.003461406799033284
1740482330.3878834,0.14694449305534363,0.013367832638323307,2.661250591278076,-0.16986879706382751,-9.415050506591797,2.49064302444458,0.15664106607437134,0.1803201138973236,0.26475200057029724
1740482330.6612508,0.14703644812107086,0.013486688025295734,2.6708333492279053,-0.31967538595199585,-9.479696273803711,2.4213085174560547,0.21671421825885773,-0.4988650679588318,-0.2488410770893097
1740482330.856766,0.14753134548664093,0.013606288470327854,2.6844558715820312,-0.21502643823623657,-9.407953262329102,2.442783832550049,0.6102670431137085,0.1823752075433731,0.08302877843379974
1740482331.0638769,0.1476648598909378,0.013778754509985447,2.6956448554992676,0.0014846620615571737,-9.447673797607422,2.4214627742767334,0.2809741497039795,0.3983859717845917,0.08547776192426682
1740482331.2446685,0.14787641167640686,0.01392812468111515,2.705718755722046,-0.06516049057245255,-9.469383239746094,2.44999361038208,-0.13808321952819824,-0.18701237440109253,-0.5456221103668213
1740482331.4401062,0.14803676307201385,0.014083466492593288,2.715238332748413,0.003900992451235652,-9.469029426574707,2.3880999088287354,0.07072237133979797,0.30518731474876404,-0.034127723425626755
1740482331.7669115,0.1481318473815918,0.014223295263946056,2.724198341369629,-0.1982533037662506,-9.436304092407227,2.3549678325653076,0.22078882157802582,0.05949907377362251,-0.1559368520975113
1740482332.175613,0.14834798872470856,0.014388968236744404,2.7370102405548096,-0.179254412651062,-9.457694053649902,2.369002342224121,0.2775953412055969,0.11811976879835129,0.14396652579307556
1740482332.5370796,0.14876069128513336,0.014483621343970299,2.752681016921997,-0.09850714355707169,-9.42431640625,2.483279228210449,-0.31960609555244446,0.30468714237213135,-0.12253142148256302
1740482332.8629909,0.14958971738815308,0.014604481868445873,2.767659902572632,-0.1792561411857605,-9.448162078857422,2.3665478229522705,0.10266784578561783,0.49091628193855286,-0.06327654421329498
1740482333.1789954,0.14976735413074493,0.014731328003108501,2.7848215103149414,-0.058013055473566055,-9.45982837677002,2.445315361022949,0.1273564100265503,0.21102942526340485,0.20504416525363922
1740482333.5006497,0.15010550618171692,0.014882992021739483,2.798733711242676,-0.16744256019592285,-9.431598663330078,2.4380288124084473,-0.04754512757062912,0.4294913709163666,-0.1229582279920578
1740482333.8225138,0.1509324461221695,0.01497557107359171,2.8147311210632324,-0.29582491517066956,-9.434267044067383,2.3689253330230713,0.2532729506492615,-0.2171688824892044,-0.5773383378982544
1740482334.1583793,0.15112636983394623,0.015061005018651485,2.8318088054656982,-0.05090562254190445,-9.50506591796875,2.456972122192383,-0.054750990122556686,0.33170193433761597,0.386281818151474
1740482334.5437663,0.15149180591106415,0.015136023983359337,2.8516054153442383,-0.0485452301800251,-9.569361686706543,2.4639508724212646,-0.3927980065345764,-0.29126662015914917,0.4742729663848877
1740482334.9042404,0.15238769352436066,0.015189077705144882,2.879944086074829,-0.32933762669563293,-9.434685707092285,2.5256905555725098,-0.833131730556488,0.05356261134147644,-0.2118184119462967
1740482335.317499,0.15317468345165253,0.01537400670349598,2.9105892181396484,-0.08881857991218567,-9.604915618896484,2.3162338733673096,-0.012445096857845783,0.646838903427124,-0.4218543469905853
1740482335.6785882,0.15426713228225708,0.01545955240726471,2.9436004161834717,-0.2054893523454666,-9.534049034118652,2.406735420227051,-0.590951144695282,1.0412014722824097,0.3921077847480774
1740482336.0695066,0.15595678985118866,0.015601243823766708,2.962693691253662,-0.16491691768169403,-9.395604133605957,2.3069546222686768,0.6789135336875916,0.3414774239063263,-0.5161261558532715
1740482336.4233475,0.156661257147789,0.015771398320794106,2.980977773666382,-0.03678670898079872,-9.448071479797363,2.563654661178589,-0.5905640721321106,0.3327506482601166,-0.15134625136852264
1740482336.6669173,0.15820693969726562,0.015969889238476753,2.9983859062194824,0.011146542616188526,-9.368773460388184,2.2831015586853027,0.9031761884689331,0.4229152202606201,0.8926752209663391
1740482336.8607476,0.15881891548633575,0.0160626620054245,3.0120420455932617,-0.09612049907445908,-9.340893745422363,2.454286813735962,0.15664447844028473,-0.31524500250816345,-0.1577160656452179
1740482337.0795157,0.1594390571117401,0.01614023558795452,3.0234575271606445,-0.26982787251472473,-9.543957710266113,2.4923276901245117,-1.2874826192855835,0.018771173432469368,-0.030306443572044373
1740482337.3357406,0.1596340388059616,0.01643054001033306,3.035696268081665,-0.19368693232536316,-9.37697982788086,2.4756078720092773,-0.10746566951274872,0.27369675040245056,-0.30349865555763245
1740482337.7134702,0.1603602170944214,0.016522077843546867,3.049243450164795,-0.04141930490732193,-9.500288963317871,2.4686291217803955,0.1885310262441635,0.21024459600448608,0.08481037616729736
1740482338.1300125,0.1617494821548462,0.016591453924775124,3.0699360370635986,-0.12945853173732758,-9.464865684509277,2.4731531143188477,-0.01839241199195385,0.18044815957546234,-0.27436625957489014
1740482339.1917486,0.1629265546798706,0.01668047159910202,3.0882160663604736,-0.05308830365538597,-9.459473609924316,2.283024787902832,0.46030688285827637,0.39619380235671997,0.1446673721075058
1740482339.479534,0.1644507646560669,0.01686927117407322,3.137932538986206,-0.11509698629379272,-9.495609283447266,2.392084836959839,-0.17400985956192017,-0.19432851672172546,-0.15581277012825012
1740482339.8505573,0.16495934128761292,0.01697853021323681,3.153986930847168,-0.11500620096921921,-9.412139892578125,2.3280446529388428,0.5536748170852661,0.08998292684555054,-0.33708277344703674
1740482340.2827013,0.16578179597854614,0.01713375374674797,3.171200752258301,-0.046189986169338226,-9.421704292297363,2.4635658264160156,0.09795181453227997,-0.06874649226665497,-0.12622566521167755
1740482340.8942482,0.16610318422317505,0.017254771664738655,3.1856510639190674,-0.019984722137451172,-9.46679401397705,2.4302027225494385,0.3051382303237915,0.11417484283447266,0.2936922013759613
1740482341.3478737,0.1669130176305771,0.017391730099916458,3.2054147720336914,-0.10791901499032974,-9.438398361206055,2.370917797088623,0.008099875412881374,0.27046722173690796,0.08581635355949402
1740482341.7930589,0.16752035915851593,0.017499880865216255,3.2206921577453613,-0.08894894272089005,-9.46220588684082,2.403895616531372,0.1271359920501709,0.022317055612802505,-0.005948609672486782
1740482342.2602713,0.1677245795726776,0.017688779160380363,3.226799726486206,-0.07721800357103348,-9.414824485778809,2.544403076171875,0.06808815151453018,0.08537709712982178,-0.035342197865247726
1740482342.7324781,0.16840282082557678,0.017798710614442825,3.2303757667541504,-0.03905673325061798,-9.402616500854492,2.4586565494537354,0.0677686557173729,-0.22583268582820892,-0.1551647186279297
1740482343.20537,0.1685069501399994,0.017935840412974358,3.2461392879486084,-0.1436213254928589,-9.393263816833496,2.370609760284424,0.10265117883682251,0.11631354689598083,-0.30343031883239746
1740482343.6783211,0.16844770312309265,0.01814861409366131,3.2672340869903564,0.018140394240617752,-9.53798770904541,2.3729875087738037,-0.0979921817779541,1.3551541566848755,-0.23614026606082916
1740482344.2957478,0.16853612661361694,0.0182513277977705,3.290924310684204,0.008575337007641792,-9.47619342803955,2.415860414505005,0.39614051580429077,0.11244436353445053,0.3250696361064911
1740482344.7119071,0.16860388219356537,0.01863636076450348,3.316896438598633,-0.04143993929028511,-9.4169282913208,2.4658663272857666,0.21825511753559113,0.42209887504577637,0.3274131417274475
1740482344.9972446,0.17175942659378052,0.018750561401247978,3.3304781913757324,-0.1388910710811615,-9.421846389770508,2.384721040725708,0.011473963968455791,0.08397962898015976,-0.2732723355293274
1740482345.2755377,0.17227835953235626,0.01881556399166584,3.3408048152923584,-0.06043277308344841,-9.435943603515625,2.420384645462036,-0.10903478413820267,0.3299645483493805,-0.09159302711486816
1740482345.532049,0.17269814014434814,0.018935762345790863,3.349989414215088,0.008608044125139713,-9.418971061706543,2.382420778274536,0.2496212124824524,0.1757415533065796,0.02612178772687912
1740482345.7177196,0.17326021194458008,0.018995461985468864,3.359417200088501,-0.024796267971396446,-9.485896110534668,2.4535934925079346,-0.15062938630580902,-0.2947905957698822,0.38502198457717896
1740482345.9123235,0.17376472055912018,0.019099151715636253,3.366689443588257,-0.11507932841777802,-9.455079078674316,2.370532989501953,0.21827609837055206,0.32882386445999146,0.2369432896375656
1740482346.1499283,0.17436955869197845,0.019122954457998276,3.3738183975219727,-0.14842469990253448,-9.455244064331055,2.398986577987671,0.12705151736736298,-0.011401079595088959,0.05559656769037247
1740482346.3498263,0.1746952086687088,0.019199904054403305,3.379244804382324,-0.10568337887525558,-9.448062896728516,2.4535162448883057,0.06868194788694382,-0.07253319770097733,-0.15440227091312408
1740482346.556941,0.17549149692058563,0.01923198439180851,3.3840227127075195,-0.10327090322971344,-9.471835136413574,2.43464994430542,-0.3840326964855194,0.04874332621693611,0.027950579300522804
1740482346.7728093,0.1758754998445511,0.01927419938147068,3.388596534729004,-0.09137645363807678,-9.46226978302002,2.43464994430542,-0.11443604528903961,-0.07441429793834686,0.05621970072388649
1740482346.9706335,0.17610396444797516,0.019301630556583405,3.391723155975342,-0.1294146329164505,-9.471884727478027,2.4156293869018555,-0.08283685892820358,-0.07324782758951187,-0.06383680552244186
1740482347.207792,0.17639654874801636,0.019319962710142136,3.394939661026001,-0.13894185423851013,-9.457666397094727,2.4324264526367188,-0.023921241983771324,0.049896132200956345,0.14648665487766266
1740482347.4882717,0.17656740546226501,0.019329950213432312,3.3969359397888184,-0.0771951675415039,-9.4290189743042,2.5035223960876465,-0.08423300832509995,-0.012883604504168034,0.08640056848526001
1740482347.6817093,0.17676854133605957,0.01935548335313797,3.3983397483825684,-0.1176212951540947,-9.445798873901367,2.4916343688964844,0.03442387282848358,-0.2601701319217682,0.05464383587241173
1740482347.8779278,0.17690202593803406,0.01938241720199585,3.4009859561920166,-0.1745736002922058,-9.44813060760498,2.3726024627685547,0.0076154908165335655,-0.07365024834871292,-0.09420610219240189
1740482348.096111,0.17709238827228546,0.019370917230844498,3.406256675720215,-0.11761527508497238,-9.44817066192627,2.486879348754883,-0.08456593751907349,-0.2272612303495407,-0.004825410433113575
1740482348.2977095,0.17720377445220947,0.019364677369594574,3.4069576263427734,-0.11050526797771454,-9.472021102905273,2.515564203262329,-0.13933953642845154,-0.1605314314365387,-0.303109735250473
1740482348.503581,0.1773151010274887,0.019368676468729973,3.4172449111938477,-0.10802140086889267,-9.46230411529541,2.425062656402588,0.06650767475366592,-0.2869744300842285,-0.004762626253068447
1740482348.7041125,0.17732328176498413,0.019381776452064514,3.4244279861450195,-0.1318606585264206,-9.44338321685791,2.453362226486206,-0.14959919452667236,-0.816250205039978,0.023262737318873405
1740482348.9110556,0.1768653690814972,0.01939471624791622,3.4312899112701416,-0.08188239485025406,-9.467015266418457,2.4440062046051025,0.08762463927268982,-0.755668580532074,0.382473349571228
1740482349.132642,0.17592091858386993,0.019407087936997414,3.4369287490844727,-0.08430731296539307,-9.445626258850098,2.4650962352752686,0.08535192906856537,-0.974094569683075,0.3812980651855469
1740482349.3380914,0.17504557967185974,0.019426295533776283,3.442534923553467,-0.13426277041435242,-9.45060920715332,2.4869563579559326,-0.021649159491062164,-0.1314534991979599,-0.06355499476194382
1740482349.588208,0.17425701022148132,0.019436869770288467,3.4474430084228516,-0.13911306858062744,-9.441216468811035,2.5485422611236572,0.0603225976228714,-0.3843289017677307,0.41451403498649597
1740482349.8779826,0.17395688593387604,0.01948123425245285,3.4535655975341797,-0.2292950302362442,-9.45311450958252,2.3894762992858887,-0.23996111750602722,-0.8155015707015991,0.053641825914382935
1740482350.0686536,0.17343631386756897,0.0194973424077034,3.4656763076782227,-0.14131426811218262,-9.512384414672852,2.4082658290863037,-0.23713155090808868,-0.5062201023101807,0.02525087632238865
1740482350.2546408,0.17315708100795746,0.01956290565431118,3.4745218753814697,-0.08907973021268845,-9.490927696228027,2.4842705726623535,-0.326150506734848,-0.13617198169231415,0.17746654152870178
1740482350.4544673,0.17232593894004822,0.019563782960176468,3.482867479324341,-0.11048504710197449,-9.460043907165527,2.4843478202819824,-0.15247175097465515,-0.8179865479469299,0.26314863562583923
1740482350.660448,0.17185528576374054,0.01958354189991951,3.490823984146118,-0.2911527156829834,-9.458074569702148,2.3869447708129883,-0.5261691212654114,0.025181706994771957,-0.5704859495162964
1740482350.8610299,0.1716923862695694,0.01959468051791191,3.498901605606079,-0.0033853657077997923,-9.490557670593262,2.441474676132202,0.29906779527664185,-0.5392240285873413,0.47271403670310974
1740482351.0804517,0.17088130116462708,0.019643262028694153,3.5063488483428955,-0.17211638391017914,-9.445618629455566,2.3107857704162598,-0.17529833316802979,-0.6589168906211853,-0.21567361056804657
1740482351.27342,0.1705465167760849,0.01966768316924572,3.5151472091674805,-0.05323284491896629,-9.395339965820312,2.370455741882324,0.24755816161632538,-0.13162866234779358,0.08530139178037643
1740482351.4713588,0.1697285771369934,0.019656812772154808,3.5234835147857666,-0.08433441817760468,-9.393279075622559,2.486494302749634,0.054258476942777634,-1.2522318363189697,0.26001784205436707
1740482351.656449,0.16922405362129211,0.019726425409317017,3.5321996212005615,-0.22461770474910736,-9.381757736206055,2.441551685333252,-0.2025693655014038,-0.5029710531234741,-0.33468174934387207
1740482351.9060214,0.16882404685020447,0.01972903124988079,3.540174722671509,-0.1723736822605133,-9.465081214904785,2.5177106857299805,-0.4785478115081787,-0.44564440846443176,0.11648652702569962
1740482352.1493945,0.16847635805606842,0.01978708989918232,3.5516843795776367,-0.37678471207618713,-9.360742568969727,2.3919310569763184,0.011951643973588943,0.0871005728840828,-0.18246565759181976
1740482352.4246817,0.16803331673145294,0.019825177267193794,3.5650391578674316,-0.022464273497462273,-9.459757804870605,2.486802339553833,0.5450618267059326,-0.9038746953010559,-0.18982082605361938
1740482352.7223938,0.16729643940925598,0.019862856715917587,3.580728769302368,0.09414925426244736,-9.485469818115234,2.441474676132202,0.6038320064544678,-0.38138076663017273,0.29243379831314087
1740482353.016735,0.16653570532798767,0.019973309710621834,3.5962939262390137,-0.16509976983070374,-9.471996307373047,2.413174867630005,0.2725949287414551,-0.19698534905910492,0.4446626901626587
1740482353.2208016,0.16571152210235596,0.020018422976136208,3.611355781555176,-0.16993758082389832,-9.41259479522705,2.472537040710449,-0.058227282017469406,-0.8454073071479797,-0.06718889623880386
1740482353.419672,0.16531157493591309,0.020068902522325516,3.620199680328369,-0.08680281788110733,-9.419659614562988,2.572394847869873,0.09731601923704147,0.052307989448308945,0.176801398396492
1740482353.6206949,0.1651361584663391,0.020145578309893608,3.6287877559661865,-0.0795392319560051,-9.521851539611816,2.479823589324951,-0.1475401669740677,-0.41309019923210144,0.17533431947231293
1740482353.9241154,0.16463251411914825,0.020190410315990448,3.6391279697418213,-0.34604236483573914,-9.525188446044922,2.517556667327881,-0.6517897248268127,0.42107871174812317,0.12172195315361023
1740482354.1191962,0.16433152556419373,0.020304592326283455,3.6557135581970215,-0.20082144439220428,-9.469764709472656,2.43196439743042,-0.17308814823627472,-0.565203845500946,-0.3351345956325531
1740482354.331051,0.16393457353115082,0.02111891470849514,3.6694400310516357,-0.04142916202545166,-9.49305534362793,2.4344959259033203,-0.21396061778068542,-0.5106949806213379,0.5948479771614075
1740482354.5307295,0.1633821725845337,0.021346861496567726,3.6813268661499023,-0.11035466939210892,-9.438380241394043,2.3699936866760254,0.06991618871688843,-0.10110718756914139,-0.18374493718147278
1740482354.7219386,0.16285479068756104,0.021514276042580605,3.6913020610809326,-0.0770910233259201,-9.44784927368164,2.398447275161743,0.16819408535957336,0.7673487067222595,-0.20955044031143188
1740482354.9034605,0.16264726221561432,0.021627692505717278,3.6992828845977783,-0.07715170085430145,-9.443228721618652,2.4654042720794678,0.44050517678260803,0.9864661693572998,-0.1194780096411705
1740482355.1135087,0.16257914900779724,0.021872233599424362,3.706507682800293,-0.14609698951244354,-9.45287036895752,2.412712812423706,-0.1765359342098236,-0.38359060883522034,0.05560842528939247
1740482355.2980978,0.16319577395915985,0.021977530792355537,3.7152609825134277,-0.041488949209451675,-9.385944366455078,2.462641716003418,0.2740612328052521,-0.012765783816576004,0.41559308767318726
1740482355.4810834,0.1633463054895401,0.022174250334501266,3.723588705062866,-0.029464127495884895,-9.49289608001709,2.3749799728393555,0.19292065501213074,0.24097633361816406,-0.12243514508008957
1740482355.66017,0.16342337429523468,0.02225412055850029,3.7328882217407227,-0.16276778280735016,-9.476814270019531,2.4463839530944824,-0.11005806922912598,-0.10021355003118515,-0.21297945082187653
1740482355.9109147,0.16359059512615204,0.02232072316110134,3.7406225204467773,-0.12706801295280457,-9.431415557861328,2.429663896560669,0.010538364760577679,0.30067524313926697,0.05850731581449509
1740482356.1114771,0.16382548213005066,0.022430140525102615,3.7495229244232178,-0.22221040725708008,-9.460277557373047,2.4153213500976562,-0.16762755811214447,0.05491488054394722,-0.33188873529434204
1740482356.3509364,0.16438503563404083,0.022486021742224693,3.7573554515838623,-0.21275977790355682,-9.455575942993164,2.4627957344055176,-0.32442933320999146,-0.474199116230011,-0.21412713825702667
1740482356.544953,0.16470548510551453,0.022650234401226044,3.7668967247009277,-0.2887677848339081,-9.4818696975708,2.3821895122528076,0.044566474854946136,0.149761363863945,-0.3621959984302521
1740482356.7315862,0.1651831716299057,0.022697072476148605,3.7740018367767334,-0.19604729115962982,-9.512577056884766,2.4152443408966064,0.21626687049865723,-0.25724756717681885,0.0547371581196785
1740482356.9119103,0.1653376668691635,0.0227185245603323,3.782233476638794,-0.10327047109603882,-9.464641571044922,2.4152443408966064,0.10289488732814789,0.5484060645103455,0.05943066254258156
1740482357.116166,0.16551214456558228,0.02270977385342121,3.789255380630493,-0.08670599013566971,-9.440893173217773,2.4769067764282227,0.13249945640563965,0.301093190908432,-0.09192832559347153
1740482357.321877,0.16565020382404327,0.022683441638946533,3.797421455383301,-0.051022596657276154,-9.440773963928223,2.4769067764282227,0.038012951612472534,0.08211424201726913,0.08719808608293533
1740482357.5119772,0.165999174118042,0.022713612765073776,3.8031599521636963,-0.11768107861280441,-9.450607299804688,2.519780397415161,0.25637495517730713,0.4275256097316742,-0.2716503143310547
1740482357.7723377,0.16612155735492706,0.022707220166921616,3.810976505279541,-0.0009660269133746624,-9.428563117980957,2.4057343006134033,0.3058791756629944,-0.2573927640914917,0.11435078829526901
1740482358.0335107,0.16617602109909058,0.02272447571158409,3.824665069580078,-0.07008687406778336,-9.45517635345459,2.5030601024627686,-0.49517616629600525,0.42509177327156067,-0.3886364996433258
1740482358.2134812,0.16613997519016266,0.022687800228595734,3.838879346847534,-0.09604860097169876,-9.5239896774292,2.3365538120269775,0.3133692741394043,0.45574694871902466,-0.0018839049153029919
1740482358.4095516,0.1664913147687912,0.022675499320030212,3.8484466075897217,-0.10811473429203033,-9.424283027648926,2.4720749855041504,0.16239146888256073,0.5781036019325256,0.11929565668106079
1740482358.606691,0.16652941703796387,0.022946570068597794,3.858696460723877,-0.015269496478140354,-9.552485466003418,2.4295098781585693,0.18915481865406036,0.669160783290863,0.4795076847076416
1740482358.7937415,0.16638483107089996,0.023054270073771477,3.869318962097168,-0.046129271388053894,-9.48340892791748,2.3699166774749756,0.5481236577033997,0.32942596077919006,0.41631215810775757
1740482359.0368133,0.16702625155448914,0.022946160286664963,3.878316640853882,-0.3220258057117462,-9.419984817504883,2.3416941165924072,0.3124346435070038,-0.15977798402309418,-0.33491042256355286
1740482359.2202404,0.16734926402568817,0.022867463529109955,3.891295909881592,-0.22458410263061523,-9.467384338378906,2.3959927558898926,-0.1763509213924408,0.2325376570224762,0.47862765192985535
1740482359.4166243,0.16812722384929657,0.022836223244667053,3.9005613327026367,-0.4005146324634552,-9.41782283782959,2.322519540786743,-0.32567811012268066,-0.7832173705101013,-0.33568814396858215
1740482359.6127837,0.16863590478897095,0.022575290873646736,3.907486915588379,-0.17211294174194336,-9.452710151672363,2.2890021800994873,0.22165104746818542,0.30034175515174866,-0.0023399817291647196
1740482359.8151333,0.1689961850643158,0.022554047405719757,3.9157655239105225,-0.1485287994146347,-9.424375534057617,2.450676918029785,-0.11089228838682175,-0.010053077712655067,-0.1225978434085846
1740482360.0904472,0.16941849887371063,0.022575460374355316,3.9199132919311523,0.027493776753544807,-9.509587287902832,2.4819703102111816,0.06985730677843094,0.23865340650081635,0.08793030679225922
1740482360.277058,0.16978135704994202,0.02259233593940735,3.9280202388763428,0.0894581750035286,-9.401988983154297,2.369762659072876,0.6645510196685791,-0.4438314437866211,0.17188525199890137
1740482360.5028229,0.16995824873447418,0.022607658058404922,3.9393441677093506,-0.036623165011405945,-9.36430835723877,2.369762659072876,0.010209792293608189,0.11386484652757645,-0.09244783222675323
1740482360.7067573,0.17024895548820496,0.022552678361535072,3.9507246017456055,-0.07713489979505539,-9.407425880432129,2.42927885055542,0.12892138957977295,0.698878288269043,0.4798773527145386
1740482360.9074614,0.17099304497241974,0.022498130798339844,3.9613654613494873,-0.24833044409751892,-9.422170639038086,2.3699936866760254,0.6149404644966125,0.2729565501213074,-0.15394528210163116
1740482361.1003754,0.17128515243530273,0.022495295852422714,3.97245192527771,-0.03906187415122986,-9.366809844970703,2.424600601196289,0.1253816783428192,-0.38181832432746887,-0.005545254796743393
1740482361.2790942,0.1720203012228012,0.022072946652770042,3.982419967651367,-0.1223824992775917,-9.436209678649902,2.4600331783294678,0.2750176191329956,-0.1670113354921341,0.20486067235469818
1740482361.470409,0.1725856363773346,0.022332487627863884,3.9920241832733154,-0.15328016877174377,-9.376774787902832,2.4532082080841064,-0.07533033192157745,0.08690580725669861,-0.48202401399612427
1740482361.7250261,0.17278431355953217,0.022346267476677895,4.002933979034424,-0.0747121274471283,-9.526423454284668,2.398447275161743,0.277199923992157,0.0510682575404644,0.2060261368751526
1740482361.93431,0.1734166294336319,0.022436823695898056,4.015442371368408,-0.0485486201941967,-9.526351928710938,2.4056572914123535,-0.23508073389530182,0.04902627319097519,0.23803433775901794
1740482362.2165494,0.17358961701393127,0.02242651954293251,4.029268264770508,-0.11272063851356506,-9.438340187072754,2.3483645915985107,0.32890933752059937,-0.4790775775909424,0.5028557777404785
1740482362.4664447,0.17409756779670715,0.022491417825222015,4.043807506561279,0.020321398973464966,-9.550101280212402,2.4910953044891357,-0.6276509165763855,-0.3852933645248413,-0.0025934241712093353
1740482362.648329,0.17491966485977173,0.022511791437864304,4.0596418380737305,-0.2009565532207489,-9.569942474365234,2.5195491313934326,-0.3550819158554077,0.048008039593696594,0.17850975692272186
1740482362.845616,0.17567649483680725,0.02253752015531063,4.0744805335998535,-0.3767050504684448,-9.415312767028809,2.2985894680023193,-0.025439441204071045,-0.07446742057800293,0.2365460991859436
1740482363.039417,0.175882950425148,0.022667506709694862,4.089402675628662,-0.0723680928349495,-9.424065589904785,2.4221460819244385,0.45629382133483887,-0.2885507047176361,0.08358224481344223
1740482363.2830894,0.17675957083702087,0.022719409316778183,4.098389625549316,-0.08432062715291977,-9.424158096313477,2.452746629714966,0.16362546384334564,-0.16169610619544983,-0.5442978739738464
1740482363.484315,0.17689423263072968,0.022748667746782303,4.1211724281311035,0.015439707785844803,-9.459802627563477,2.581289052963257,-0.5964270830154419,-0.32332783937454224,-0.06237593665719032
1740482363.6955333,0.1779785454273224,0.02278183028101921,4.136455059051514,-0.005824051331728697,-9.323922157287598,2.4696204662323,0.13764162361621857,0.6122826933860779,-0.30021658539772034
1740482363.9015036,0.17925478518009186,0.022891804575920105,4.151103496551514,-0.03203015401959419,-9.502635955810547,2.4884097576141357,0.12978968024253845,1.1297547817230225,0.69200199842453
1740482364.1427522,0.18073248863220215,0.022798974066972733,4.1671552658081055,0.09654967486858368,-9.392511367797852,2.405426263809204,0.8452572226524353,-0.44308042526245117,0.17117445170879364
1740482364.3477361,0.18095262348651886,0.02221587486565113,4.184293270111084,-0.01784500852227211,-9.636107444763184,2.5694782733917236,-0.14722107350826263,0.0468016043305397,0.41755661368370056
1740482364.777007,0.18175823986530304,0.023081770166754723,4.202240467071533,-0.1891012340784073,-9.374699592590332,2.5504579544067383,-0.533316433429718,-0.9678688645362854,-0.75565505027771
1740482365.249851,0.18399500846862793,0.023180825635790825,4.236147880554199,-0.2248934656381607,-9.658342361450195,2.628763437271118,-0.9937003254890442,-0.2984603941440582,0.4190687835216522
1740482365.6841195,0.18640263378620148,0.02288268692791462,4.270397663116455,-0.16988204419612885,-9.369569778442383,2.398216485977173,-0.28967562317848206,-0.4414141774177551,-0.6039310097694397
1740482366.1226017,0.18946591019630432,0.022924380376935005,4.2988786697387695,-0.05577218905091286,-9.497888565063477,2.4552009105682373,0.3115169405937195,-0.10105539858341217,-0.2746952176094055
1740482366.5424352,0.18977175652980804,0.022804051637649536,4.326159477233887,-0.1365426927804947,-9.474189758300781,2.3745179176330566,0.40667328238487244,0.5503559708595276,-0.18166929483413696
1740482366.9584637,0.19099901616573334,0.021620335057377815,4.351993560791016,-0.19125549495220184,-9.395796775817871,2.3769724369049072,0.10609252750873566,0.272479772567749,-0.42181161046028137
1740482367.8319292,0.19205404818058014,0.02126913145184517,4.380173206329346,-0.07480978965759277,-9.51223087310791,2.452669382095337,0.21624663472175598,-0.013009962625801563,0.17589512467384338
1740482368.534054,0.19685515761375427,0.021129030734300613,4.42302942276001,-0.1247859075665474,-9.400517463684082,2.471766948699951,-0.05000465735793114,0.020339583978056908,-0.18268071115016937
1740482369.247327,0.19704346358776093,0.02057952806353569,4.454554080963135,0.020404012873768806,-9.516623497009277,2.4220690727233887,-0.32484784722328186,-0.10585520416498184,0.05764179304242134
1740482370.066657,0.19945697486400604,0.020451655611395836,4.491542816162109,-0.1937664896249771,-9.405488967895508,2.462179660797119,0.06747204810380936,0.23415139317512512,0.20777034759521484
1740482370.4682004,0.20240670442581177,0.020906340330839157,4.522043228149414,-0.20073968172073364,-9.360050201416016,2.3483645915985107,0.3745066523551941,0.024952229112386703,-0.39420145750045776
1740482370.7903621,0.20368294417858124,0.020130164921283722,4.539793014526367,-0.1627642810344696,-9.429068565368652,2.3979084491729736,0.0026021567173302174,-0.32429155707359314,0.17509163916110992
1740482371.1792,0.20377250015735626,0.020096125081181526,4.552711486816406,-0.14139942824840546,-9.471932411193848,2.4335720539093018,0.06550849229097366,-0.22972171008586884,0.025419047102332115
1740482371.3950646,0.20521925389766693,0.020374437794089317,4.569706439971924,-0.27219465374946594,-9.405632972717285,2.402740478515625,0.06986764818429947,-0.28800344467163086,-0.36469441652297974
1740482371.6048477,0.20546597242355347,0.020415276288986206,4.579417705535889,-0.16518235206604004,-9.405325889587402,2.428816795349121,0.25171321630477905,0.14466238021850586,-0.1532512903213501
1740482371.8331614,0.20569287240505219,0.019892200827598572,4.588817119598389,-0.0937669426202774,-9.42884349822998,2.3980624675750732,0.034382086247205734,-0.3224329352378845,0.05505474656820297
1740482372.0633974,0.2055099457502365,0.0194862000644207,4.598232269287109,-0.14852449297904968,-9.445791244506836,2.443467140197754,0.27694082260131836,-0.042121004313230515,0.14555062353610992
1740482372.3324687,0.20643556118011475,0.019361816346645355,4.610381126403809,-0.12466586381196976,-9.38125991821289,2.369377613067627,0.27580526471138,-0.4141002595424652,-0.06633750349283218
1740482372.5357263,0.20670124888420105,0.019263993948698044,4.62467098236084,-0.05795704200863838,-9.44043254852295,2.2982044219970703,0.39382609724998474,-0.16824418306350708,0.3243052661418915
1740482373.1196814,0.20681704580783844,0.019213316962122917,4.6339826583862305,-0.0913880467414856,-9.45979118347168,2.3980624675750732,0.2480335533618927,-0.04224298521876335,0.025701625272631645
1740482373.58673,0.20806993544101715,0.018843187019228935,4.6602888107299805,-0.12719275057315826,-9.405294418334961,2.4785914421081543,-0.2930622100830078,-0.014093268662691116,-0.06199644133448601
1740482373.992597,0.20940157771110535,0.018767397850751877,4.684272289276123,-0.21997949481010437,-9.467560768127441,2.497843027114868,0.0023031386081129313,-0.2009630799293518,0.295688658952713
1740482374.4837399,0.2126004844903946,0.01722325198352337,4.705410003662109,-0.1532784104347229,-9.531497955322266,2.4289708137512207,0.1877008080482483,-0.011747658252716064,0.056085359305143356
1740482374.946453,0.21369238197803497,0.017088433727622032,4.727963924407959,-0.20085538923740387,-9.479238510131836,2.416851758956909,0.1895546317100525,0.019521614536643028,-0.09370430558919907
1740482375.4377344,0.2156471312046051,0.017081094905734062,4.746617317199707,-0.1676718294620514,-9.598429679870605,2.531360149383545,-0.743582546710968,0.23311196267604828,0.061075739562511444
1740482375.8287718,0.21632371842861176,0.016849352046847343,4.770979881286621,-0.18182727694511414,-9.443460464477539,2.41922926902771,0.21896955370903015,-0.22735947370529175,-0.21505914628505707
1740482376.5268807,0.21982380747795105,0.01760469377040863,4.7864789962768555,-0.14133788645267487,-9.40038776397705,2.38118839263916,0.4894256293773651,0.08148352056741714,0.05535820871591568
1740482376.940397,0.2214379906654358,0.016566088423132896,4.814370155334473,-0.034354813396930695,-9.402478218078613,2.41892147064209,-0.08763770014047623,-0.3876281976699829,0.08511994779109955
1740482377.385155,0.22451472282409668,0.01662832871079445,4.834687232971191,-0.26479294896125793,-9.376617431640625,2.193514823913574,0.7941165566444397,0.08577008545398712,-0.2156674563884735
1740482377.768239,0.22607243061065674,0.017389381304383278,4.8545241355896,-0.0390910878777504,-9.46439266204834,2.4095652103424072,-0.02312610298395157,0.0784033015370369,0.08733703196048737
1740482378.0581353,0.2281578779220581,0.016621900722384453,4.868881702423096,-0.186605304479599,-9.431639671325684,2.4504456520080566,0.09498084336519241,-0.29083067178726196,0.05498991534113884
1740482378.2560148,0.2291019707918167,0.018208341673016548,4.875835418701172,-0.14364880323410034,-9.4907865524292,2.331336736679077,-0.08260367810726166,-0.07453689724206924,-0.063130684196949
1740482378.4620376,0.22986175119876862,0.01630753092467785,4.879659652709961,-0.13895383477210999,-9.452788352966309,2.388552188873291,-0.0231039896607399,-0.13586658239364624,-0.033688101917505264
1740482378.8215966,0.23007473349571228,0.016009407117962837,4.8806471824646,-0.14142565429210663,-9.45289421081543,2.4428510665893555,-0.02345847152173519,-0.16834257543087006,-0.06388390809297562
1740482379.041808,0.2302558720111847,0.015856293961405754,4.880967140197754,-0.06533680111169815,-9.436046600341797,2.478668212890625,-0.0211923960596323,-0.010806666687130928,-0.06309688091278076
1740482379.2462604,0.23038910329341888,0.01575864665210247,4.881137847900391,-0.13902956247329712,-9.440980911254883,2.440704584121704,-0.052238866686820984,0.019086109474301338,0.025474920868873596
1740482379.4603455,0.23050589859485626,0.015675310045480728,4.881278038024902,0.013267782516777515,-9.497549057006836,2.4026637077331543,0.12676312029361725,-0.19537262618541718,-0.09801183640956879
1740482379.663717,0.23135563731193542,0.016192486509680748,4.89526891708374,-0.027292564511299133,-9.452550888061523,2.4662415981292725,-0.11297112703323364,-0.10534374415874481,-0.1866091787815094
1740482379.8803911,0.23202423751354218,0.015818951651453972,4.903317451477051,-0.11765479296445847,-9.464749336242676,2.4571166038513184,-0.08329897373914719,-0.2890031635761261,-0.24762141704559326
1740482380.1676447,0.2330901026725769,0.016287848353385925,4.911447048187256,-0.15332788228988647,-9.43388557434082,2.4451515674591064,-0.14489024877548218,0.11009335517883301,0.14451421797275543
1740482380.5761964,0.23340123891830444,0.016005931422114372,4.921005725860596,-0.1365891546010971,-9.450392723083496,2.3883211612701416,0.06815394014120102,0.08256378024816513,-0.03635502979159355
1740482380.787763,0.23550929129123688,0.015801334753632545,4.936848163604736,-0.09853115677833557,-9.443138122558594,2.395530939102173,0.277643620967865,-0.2869836688041687,-0.18904456496238708
1740482381.0048757,0.23692172765731812,0.016642704606056213,4.946834564208984,-0.1343294382095337,-9.448180198669434,2.4785914421081543,-0.29151588678359985,0.20526017248630524,-0.09426309913396835
1740482381.207791,0.23735582828521729,0.016354355961084366,4.9542365074157715,-0.05340791121125221,-9.416893005371094,2.447683095932007,0.032544590532779694,-0.32228630781173706,0.11156638711690903
1740482381.4190738,0.23768651485443115,0.01632513850927353,4.962512016296387,-0.26749494671821594,-9.441389083862305,2.4333407878875732,-0.5038925409317017,0.07975389063358307,-0.06410831212997437
1740482381.6378148,0.23837341368198395,0.016357749700546265,4.970908164978027,-0.07020128518342972,-9.41242504119873,2.5667154788970947,-0.05394298583269119,-0.1961236298084259,-0.09730104357004166
1740482381.9908822,0.23924779891967773,0.016038985922932625,4.981022834777832,0.017975661903619766,-9.457120895385742,2.4382498264312744,0.7857148051261902,-0.010573959909379482,0.32012906670570374
1740482382.2523909,0.24029216170310974,0.015082270838320255,5.000821590423584,-0.26744332909584045,-9.469902038574219,2.4002089500427246,0.0016412214608862996,-0.04535480588674545,0.383015900850296
1740482382.532841,0.2420366108417511,0.014948603697121143,5.017045974731445,0.013177001848816872,-9.442902565002441,2.4667036533355713,-0.38075780868530273,0.20566564798355103,-0.18386125564575195
1740482382.8250997,0.24306800961494446,0.012547212652862072,5.031228542327881,-0.10335002094507217,-9.44797420501709,2.4285085201263428,0.05832906812429428,-0.4182140529155731,0.3808020353317261
1740482383.0858197,0.24617516994476318,0.01183230895549059,5.044413089752197,-0.16508683562278748,-9.45521068572998,2.3648533821105957,0.13013491034507751,0.11598522961139679,-0.1263440102338791
1740482383.3028922,0.24660222232341766,0.011416785418987274,5.0563178062438965,-0.043847162276506424,-9.485847473144531,2.412019729614258,-0.1458989530801773,0.017507482320070267,0.17403137683868408
1740482383.504424,0.2502591907978058,0.011473694816231728,5.068615913391113,-0.15089474618434906,-9.57905101776123,2.402355432510376,0.34524065256118774,0.6725456714630127,-0.12432056665420532
1740482383.9125314,0.25047600269317627,0.01102735660970211,5.077669143676758,-0.16774579882621765,-9.500836372375488,2.559274673461914,0.4213414788246155,0.015809006989002228,0.5615596175193787
1740482384.294915,0.2508287727832794,0.010749941691756248,5.097115516662598,-0.13432127237319946,-9.455339431762695,2.4835777282714844,0.18200096487998962,-0.2291664332151413,0.291397362947464
1740482384.7890432,0.2540471851825714,0.010644636116921902,5.12263822555542,0.1938326060771942,-9.673495292663574,2.573617458343506,0.11292822659015656,0.6876626014709473,1.645767092704773
1740482385.245093,0.2578961253166199,0.009724076837301254,5.162003040313721,-0.12241172045469284,-9.543318748474121,2.444997549057007,0.0333915650844574,-0.3536352515220642,-0.008573167957365513
1740482385.6475458,0.25997427105903625,0.009043071419000626,5.194791793823242,-0.14364361763000488,-9.383583068847656,2.3120079040527344,0.42485055327415466,0.07990352809429169,0.3220081329345703
1740482386.0541804,0.2633458375930786,0.006692884489893913,5.217432498931885,-0.14129915833473206,-9.281243324279785,2.3429934978485107,0.786156177520752,-0.4422254264354706,-0.04197680205106735
1740482386.4045599,0.2657918930053711,0.006187949329614639,5.239026069641113,-0.015303030610084534,-9.395286560058594,2.4216840267181396,0.549524188041687,0.39262890815734863,0.23324285447597504
1740482386.819578,0.2664235234260559,0.0056196898221969604,5.258050441741943,-0.1318718045949936,-9.421874046325684,2.4240617752075195,0.36903175711631775,0.20714394748210907,0.08305733650922775
1740482387.1774912,0.27140116691589355,0.0052558304741978645,5.281291961669922,-0.21066653728485107,-9.489239692687988,2.6425669193267822,-0.6850282549858093,-0.13699734210968018,-0.18447162210941315
1740482387.522677,0.27304235100746155,0.005020102486014366,5.301027297973633,-0.0630185604095459,-9.474214553833008,2.518933057785034,0.27532830834388733,0.35763606429100037,0.4440089464187622
1740482387.8984604,0.27422425150871277,0.004540374968200922,5.322608947753906,-0.24381569027900696,-9.510480880737305,2.49707293510437,-0.5178856253623962,0.0892668217420578,-1.4133517742156982
1740482388.300377,0.2754962742328644,0.002269804012030363,5.3466997146606445,-0.3291533887386322,-9.512731552124023,2.2811765670776367,0.9673512578010559,-0.009734193794429302,0.22944509983062744
1740482388.7114842,0.2776126563549042,0.001880297320894897,5.365393161773682,-0.1083216592669487,-9.400699615478516,2.597315788269043,-0.4749383330345154,-0.16773368418216705,-0.15548846125602722
1740482388.989394,0.27801015973091125,0.0016764760948717594,5.366724491119385,-0.09635405987501144,-9.493453025817871,2.5548276901245117,0.0668221190571785,0.29760849475860596,0.2346513867378235
1740482389.289424,0.27821192145347595,0.0015324129490181804,5.366959571838379,-0.07957444339990616,-9.340767860412598,2.4428510665893555,0.1893010288476944,-0.07109549641609192,-0.21756704151630402
1740482389.5584111,0.28035834431648254,0.0013770764926448464,5.382951736450195,-0.11521265655755997,-9.305096626281738,2.4071877002716064,0.25134795904159546,-0.4085262417793274,-0.6093879342079163
1740482389.8193676,0.28137391805648804,0.0013204712886363268,5.398632526397705,-0.13192042708396912,-9.46955680847168,2.454815626144409,0.24527962505817413,-0.10436862707138062,0.11187318712472916
1740482390.0084853,0.2824186086654663,0.0004677905817516148,5.4161458015441895,0.07083364576101303,-9.310859680175781,2.0220987796783447,0.6915749907493591,-3.064483404159546,-1.5846166610717773
1740482390.2037249,0.28271549940109253,0.0002973643131554127,5.4271745681762695,-0.1294928938150406,-9.676597595214844,2.397369384765625,1.3523480892181396,-3.0854623317718506,0.9612929821014404
1740482390.4044452,0.2779731750488281,-0.0004605738213285804,5.444274425506592,-0.14865180850028992,-9.672107696533203,2.5020592212677,-0.5920700430870056,-2.4369211196899414,0.3727210760116577
1740482390.6068342,0.27647143602371216,-0.0008260380127467215,5.459819316864014,-0.0771869421005249,-9.481224060058594,2.428431510925293,-0.3001594841480255,-2.4110851287841797,1.151305913925171
1740482390.8822393,0.2734556794166565,-0.0009680070797912776,5.471024513244629,-0.20557403564453125,-9.362510681152344,2.3859434127807617,0.4886441230773926,-1.8788254261016846,1.091054916381836
1740482391.0720592,0.2696765959262848,-0.000989146064966917,5.486040115356445,-0.05845525115728378,-9.584033012390137,2.668642520904541,-0.34635257720947266,-3.87048602104187,1.413666844367981
1740482391.270847,0.26423710584640503,-0.0011718668974936008,5.497016906738281,-0.15349654853343964,-9.44367504119873,2.5782952308654785,0.38142213225364685,-4.141329288482666,0.8096727728843689
1740482391.4681966,0.25526461005210876,-0.0011981857242062688,5.511557579040527,-0.15582162141799927,-9.536450386047363,2.528212308883667,0.16647881269454956,-4.422992706298828,0.9289599657058716
1740482391.6796114,0.24785810708999634,-0.0010760757140815258,5.527773380279541,-0.07745327800512314,-9.61976432800293,2.642489433288574,-1.1495133638381958,-4.575547695159912,0.0938141718506813
1740482391.9471378,0.23961150646209717,-0.0010362607426941395,5.543612957000732,-0.3671141564846039,-9.193634986877441,2.2124581336975098,0.5626464486122131,-3.9541993141174316,0.9299131035804749
1740482392.1411097,0.22838744521141052,-0.0020118728280067444,5.561801433563232,-0.0498010516166687,-8.655292510986328,1.4630628824234009,4.444762229919434,-6.191328525543213,-0.5065473318099976
1740482392.4131317,0.2132444530725479,-0.002386088715866208,5.583539962768555,-0.18626150488853455,-9.319132804870605,2.1599977016448975,-0.23651662468910217,-2.9314308166503906,0.518664538860321
1740482392.6201322,0.2021482288837433,-0.002876468002796173,5.596253871917725,-0.05576484650373459,-9.454938888549805,2.41892147064209,-0.47464990615844727,-3.085376024246216,0.15895725786685944
1740482392.8252885,0.19485345482826233,-0.0029965790454298258,5.604083061218262,-0.22467097640037537,-9.481694221496582,2.41884446144104,-0.0478244386613369,-1.8168920278549194,0.6436951756477356
