timestamp,position_x,position_y,position_z,acceleration_x,acceleration_y,acceleration_z,angular_velocity_x,angular_velocity_y,angular_velocity_z
1740558358.7343264,0.0,0.0,0.0,-0.16284148395061493,-9.48228645324707,2.352881908416748,-0.013071267865598202,0.034174371510744095,-0.0907723531126976
1740558359.0029778,0.00016635152860544622,-5.530440466827713e-05,0.00011632572568487376,-0.2104417234659195,-9.470582962036133,2.374356746673584,-0.043117597699165344,0.15763795375823975,-4.137133510084823e-05
1740558359.1468608,0.000160856987349689,-2.3052691176417284e-05,0.0001133101832238026,-0.17713677883148193,-9.477566719055176,2.3549513816833496,0.1393420547246933,0.2803644835948944,-0.059094104915857315
1740558359.2827525,0.00015647709369659424,-4.147776962781791e-06,0.00011078053648816422,-0.21283996105194092,-9.477707862854004,2.366762161254883,0.16446058452129364,-0.09357341378927231,0.05802074447274208
1740558359.421281,0.00015258602797985077,1.169865845440654e-05,0.00010851551633095369,-0.18194620311260223,-9.444307327270508,2.3880834579467773,-0.016314422711730003,-0.03348927199840546,0.08927809447050095
1740558359.5563018,0.00014907294826116413,2.588576899142936e-05,0.00010646828741300851,-0.1700056940317154,-9.472743034362793,2.340301036834717,0.01619119755923748,0.027656810358166695,-0.06019475683569908
1740558359.7055542,0.00014589402417186648,3.8708509237039834e-05,0.00010461550118634477,-0.19856059551239014,-9.475269317626953,2.3620071411132812,0.07398352771997452,-0.06469755619764328,0.05904478579759598
1740558359.8375835,0.00014301658666227013,5.031332329963334e-05,0.00010293840023223311,-0.18904028832912445,-9.470477104187012,2.362084150314331,0.07533574849367142,0.06041066348552704,-0.00028433831175789237
1740558359.9771023,0.0001404119684593752,6.081777610233985e-05,0.00010142027895199135,-0.2223293036222458,-9.472898483276367,2.3307905197143555,0.13536237180233002,0.21321223676204681,0.05996175855398178
1740558360.1070993,0.0001224851148435846,8.539771079085767e-05,0.0001260492717847228,-0.21760854125022888,-9.496781349182129,2.3714404106140137,-0.135777086019516,0.08962090313434601,0.00043914816342294216
1740558360.236902,0.00017522288544569165,-4.2628267692634836e-05,4.237821121932939e-05,-0.20573726296424866,-9.484843254089355,2.3783419132232666,-0.016396529972553253,-0.003934562671929598,-0.0005510041955858469
1740558360.3604078,0.0001884555967990309,0.0003287230501882732,0.00019673860515467823,-0.15335732698440552,-9.4679594039917,2.35479736328125,0.13224077224731445,-0.0038323630578815937,0.17879314720630646
1740558360.4886801,0.0002284326037624851,0.00036972705856896937,0.00012737137149088085,-0.23428396880626678,-9.496845245361328,2.3783419132232666,-0.13595083355903625,0.05783704295754433,-0.02973705716431141
1740558360.6143165,0.0001171176991192624,0.0003475149569567293,0.00011826846457552165,-0.13894023001194,-9.439072608947754,2.226100444793701,1.214691400527954,-0.3714805841445923,0.022619131952524185
1740558360.734535,0.00010918486077571288,0.0002650754468049854,0.0001378922606818378,-0.24139012396335602,-9.603997230529785,2.3618528842926025,-0.3793635666370392,-0.1600344032049179,0.030063224956393242
1740558360.9842372,0.00020207444322295487,0.00024726614356040955,0.0001253559603355825,-0.1699652373790741,-9.479813575744629,2.3045601844787598,-0.01703297533094883,-0.06629244983196259,-0.0008853932959027588
1740558361.108343,0.0001622903801035136,0.00010897121683228761,0.0001795163843780756,-0.19621697068214417,-9.449094772338867,2.3784189224243164,-0.13613352179527283,0.027177143841981888,-0.02988954447209835
1740558361.2292278,0.00013161588867660612,0.00019225661526434124,0.00020325876539573073,-0.2176085114479065,-9.47052001953125,2.344748020172119,-0.07709074020385742,0.025176463648676872,0.029793553054332733
1740558361.3532057,0.00014324010408017784,0.0001982093381229788,0.00021613104036077857,-0.2294771373271942,-9.482436180114746,2.328181743621826,-0.07633797079324722,-0.0664539560675621,-0.09062159061431885
1740558361.5190651,0.0001710038777673617,0.00023561410489492118,0.0001797982258722186,-0.22000634670257568,-9.472969055175781,2.3711321353912354,-0.10621557384729385,0.1498529314994812,0.06057508662343025
1740558361.6825614,0.00023324745416175574,0.0002094722876790911,0.00022594101028516889,-0.17960771918296814,-9.45621109008789,2.3971314430236816,-0.07561622560024261,0.05730946362018585,-0.059987906366586685
1740558361.840033,0.00023646534828003496,0.00022795432596467435,0.00024914060486480594,-0.24141333997249603,-9.456365585327148,2.3687546253204346,0.1980026513338089,0.24568435549736023,-0.1200297474861145
1740558362.0037284,0.0003616561007220298,0.00023226463235914707,0.0004698013362940401,-0.1391785889863968,-9.472765922546387,2.406641721725464,-0.01107171643525362,0.3379148840904236,-0.20868676900863647
1740558362.1701217,0.0006737418007105589,0.0002395716728642583,0.0005943523719906807,-0.10363288223743439,-9.422826766967773,2.5038907527923584,-0.17732667922973633,1.5482207536697388,-0.5315055251121521
1740558362.3422818,0.0011909024324268103,0.00035756645957008004,0.003464458044618368,-0.20828956365585327,-9.451774597167969,2.5114083290100098,-0.03511008247733116,3.383446455001831,-0.942138135433197
1740558362.5117948,0.006070670206099749,0.0004817926383111626,0.010268507525324821,-0.2891004681587219,-9.294730186462402,2.4397735595703125,-0.31948792934417725,4.99520206451416,-1.1724296808242798
1740558362.6820657,0.011324259452521801,0.0004768266517203301,0.022908268496394157,-0.18913492560386658,-9.275236129760742,2.3872361183166504,0.1861400008201599,4.9303741455078125,-0.7250298261642456
1740558362.8574393,0.018962373957037926,0.000468563346657902,0.040246348828077316,-0.14891186356544495,-9.508819580078125,2.5632529258728027,-0.31602659821510315,4.195904731750488,-2.04621958732605
1740558363.0262492,0.027619272470474243,0.0005660630413331091,0.05846449360251427,-0.3010168671607971,-9.31143569946289,2.441843032836914,-0.2913721799850464,4.222439289093018,-1.5964276790618896
1740558363.1906645,0.03610175475478172,0.0006086091161705554,0.07882741093635559,-0.16537995636463165,-8.996561050415039,2.398815870285034,2.1933705806732178,4.889556407928467,-2.3823602199554443
1740558363.366064,0.045177530497312546,0.0007969526923261583,0.10074204206466675,-0.2645413875579834,-9.545822143554688,1.8165432214736938,3.1916916370391846,3.376493453979492,1.0839358568191528
1740558363.542933,0.05235264077782631,0.0009528892696835101,0.12626002728939056,-0.5174823999404907,-9.054964065551758,2.4347875118255615,-1.3045755624771118,0.5170984268188477,-0.23265250027179718
1740558363.7226207,0.0593070425093174,0.0017586180474609137,0.14936858415603638,-0.3459292948246002,-9.334969520568848,2.2232611179351807,1.1235148906707764,-2.613783836364746,0.8806628584861755
1740558363.9085984,0.0594857782125473,0.002475308021530509,0.1724570244550705,-0.28226667642593384,-9.192709922790527,2.648383140563965,0.7204005718231201,-4.874673843383789,0.15066839754581451
1740558364.096137,0.05625734105706215,0.0026465607807040215,0.2013346254825592,-0.1847049742937088,-9.411420822143555,2.6269853115081787,0.6286489963531494,-3.612656593322754,1.1771512031555176
1740558364.2769356,0.051795899868011475,0.002802513539791107,0.23106200993061066,-0.20577378571033478,-9.282339096069336,2.3462014198303223,-0.8244930505752563,-6.028273582458496,0.03073779307305813
1740558364.453399,0.046399857848882675,0.0031226705759763718,0.267381876707077,-0.3110620975494385,-9.374161720275879,2.8408892154693604,-5.385466575622559,-3.9297187328338623,2.668496608734131
1740558364.6386907,0.04084823653101921,0.0033019655384123325,0.3000107705593109,-0.28763285279273987,-9.342342376708984,1.243087649345398,5.119294166564941,0.29018163681030273,3.6986281871795654
1740558364.8179753,0.034816842526197433,0.0035119850654155016,0.33909887075424194,-0.4010142683982849,-9.580936431884766,2.489009380340576,-2.1168339252471924,0.18348583579063416,1.8676618337631226
1740558365.057877,0.03235302120447159,0.003695850260555744,0.38022953271865845,-0.08238370716571808,-9.477653503417969,2.5813491344451904,-3.4438743591308594,-1.48870050907135,0.7846188545227051
1740558365.227619,0.02936415933072567,0.004248548299074173,0.4360954761505127,0.10826937854290009,-9.99559497833252,2.307852029800415,-2.6945302486419678,-1.0975710153579712,-1.1053109169006348
1740558365.413671,0.028975635766983032,0.004417060408741236,0.48199766874313354,0.023587819188833237,-10.134913444519043,1.5663597583770752,4.529581069946289,6.183264255523682,-0.43583032488822937
1740558365.581419,0.032098766416311264,0.00499773072078824,0.5242359042167664,0.007929899729788303,-8.815485954284668,2.647921085357666,-4.813710689544678,4.105103969573975,-1.3393666744232178
1740558365.7630515,0.04091262072324753,0.00578586058691144,0.5675288438796997,0.277093768119812,-8.842599868774414,2.3648369312286377,3.5706746578216553,3.5620687007904053,-2.7546911239624023
1740558365.9453914,0.05473192781209946,0.006337771192193031,0.6174582839012146,-0.32173803448677063,-8.557835578918457,1.8561147451400757,3.3724021911621094,4.566115856170654,-0.5897296667098999
1740558366.1247685,0.06526374816894531,0.0068624564446508884,0.665719747543335,0.017983317375183105,-9.200324058532715,2.20047664642334,2.7682180404663086,6.153472900390625,-1.7783942222595215
1740558366.311562,0.07599658519029617,0.007938899099826813,0.7063781023025513,0.1439058780670166,-9.02873706817627,2.3410611152648926,2.7410881519317627,4.739132404327393,-3.0150673389434814
1740558366.4913445,0.09042395651340485,0.009020160883665085,0.7597839832305908,-0.1453212946653366,-9.64010238647461,1.541967749595642,3.7606732845306396,6.403393745422363,-1.4811503887176514
1740558366.6676118,0.10337235778570175,0.009829623624682426,0.8086016178131104,-0.45675450563430786,-9.327852249145508,3.268234968185425,-3.9641940593719482,4.5029449462890625,-4.039253234863281
1740558366.8538637,0.12086941301822662,0.010797359049320221,0.861996054649353,-0.5350291132926941,-11.15651798248291,3.060847520828247,-5.189316749572754,5.334632873535156,-4.269959449768066
1740558367.0315523,0.13893818855285645,0.01192494761198759,0.9151688814163208,-0.23710598051548004,-9.054408073425293,2.6404802799224854,3.1880760192871094,5.723135948181152,-1.9322278499603271
1740558367.2639642,0.15536610782146454,0.012362881563603878,0.9682241082191467,0.25571000576019287,-9.271224021911621,2.3288650512695312,-3.720715284347534,4.905464172363281,-3.978151559829712
1740558367.4415011,0.18227964639663696,0.012801689095795155,1.0447947978973389,0.055441103875637054,-9.248741149902344,2.666248321533203,-0.05107932165265083,3.2931950092315674,-2.352043390274048
1740558367.6114888,0.20181584358215332,0.01318969577550888,1.0975933074951172,0.34646809101104736,-8.979784965515137,2.0216970443725586,-2.5819814205169678,2.1101858615875244,-3.1278862953186035
1740558367.7754579,0.2209538370370865,0.013487403281033039,1.1519478559494019,-0.53560471534729,-9.358238220214844,1.6488043069839478,7.780361652374268,2.9150390625,2.1726369857788086
1740558367.9389725,0.24200130999088287,0.013879762962460518,1.2063751220703125,-0.9446009993553162,-10.558418273925781,3.3746094703674316,-8.235865592956543,2.35878324508667,1.3334890604019165
1740558368.1033206,0.2643009424209595,0.014101228676736355,1.2597143650054932,-0.23967155814170837,-9.599956512451172,2.761197090148926,-5.270074367523193,-0.6078910827636719,-1.9921596050262451
1740558368.2742834,0.27773991227149963,0.014715594239532948,1.3092738389968872,-0.0988805815577507,-9.705944061279297,2.409163475036621,-6.604277610778809,0.8895812034606934,-0.1799435168504715
1740558368.447344,0.29111409187316895,0.01535837259143591,1.3670201301574707,0.0036428484600037336,-9.17186164855957,2.2382097244262695,0.07951603829860687,-1.8777306079864502,0.4387209713459015
1740558368.6206863,0.3028160631656647,0.01607092283666134,1.4198367595672607,-0.5056338906288147,-9.65722370147705,2.375800609588623,0.08237621933221817,-0.5518473982810974,1.1353042125701904
1740558368.7771153,0.31599509716033936,0.01687733270227909,1.4705270528793335,0.010455121286213398,-9.2842378616333,2.48286771774292,-5.675884246826172,-1.8008240461349487,-4.155734539031982
1740558368.9434383,0.32798680663108826,0.01730499416589737,1.5225403308868408,-0.19965074956417084,-8.698987007141113,1.2036603689193726,8.59912395477295,-2.7509191036224365,4.928036212921143
1740558369.118637,0.3397780954837799,0.01780114136636257,1.584631323814392,-0.3561323285102844,-10.185957908630371,2.6706957817077637,2.972804546356201,-1.659236192703247,-2.0603034496307373
1740558369.3974955,0.3493237793445587,0.01869107410311699,1.6351646184921265,-0.37715384364128113,-8.723244667053223,2.3372974395751953,5.537615776062012,-1.3600994348526,0.1499168425798416
1740558369.6594446,0.3626140058040619,0.019166678190231323,1.7310892343521118,-0.12546230852603912,-10.137635231018066,2.7130298614501953,-5.514867305755615,-3.0075836181640625,-1.0144164562225342
1740558369.8792968,0.3721204102039337,0.019496671855449677,1.8112337589263916,0.11103986203670502,-9.149415969848633,1.918691873550415,3.600773811340332,-2.823477268218994,-0.1499939113855362
1740558370.0676277,0.3780549168586731,0.019833676517009735,1.8800491094589233,0.03432367742061615,-9.145843505859375,2.389526844024658,-1.3364869356155396,-2.8731021881103516,-0.31062522530555725
1740558370.2370236,0.38247233629226685,0.020026540383696556,1.9355970621109009,-0.01982163079082966,-8.776034355163574,1.9401668310165405,-0.6050714254379272,-4.394990921020508,0.3381200432777405
1740558370.405967,0.38524001836776733,0.02029837667942047,1.9841214418411255,0.09616198390722275,-8.590846061706543,2.411155939102173,6.800325393676758,-0.5757254958152771,3.357405424118042
1740558370.5753884,0.39001235365867615,0.020437221974134445,2.0358097553253174,-0.48381897807121277,-8.61582088470459,2.025681972503662,7.108031749725342,-3.0879948139190674,3.432870388031006
1740558370.7424712,0.39407816529273987,0.02043762244284153,2.083163022994995,-0.6093766689300537,-8.459592819213867,3.490262985229492,-6.751716136932373,-2.7797460556030273,4.208940029144287
1740558370.9221857,0.39527446031570435,0.02073151059448719,2.1342287063598633,-0.2716034948825836,-9.988344192504883,1.6357612609863281,-2.1277732849121094,-4.762077808380127,-1.0070985555648804
1740558371.1011622,0.39581555128097534,0.020792091265320778,2.1923067569732666,-0.16538330912590027,-8.927224159240723,2.287137269973755,1.288758635520935,-2.273792266845703,-0.3178676664829254
1740558371.2854095,0.397306352853775,0.020638979971408844,2.24759578704834,-0.13676300644874573,-9.438982009887695,2.22524356842041,-0.842573344707489,-2.6380221843719482,1.307793378829956
1740558371.4651837,0.397783100605011,0.020324040204286575,2.3037166595458984,-0.49246105551719666,-9.68021011352539,3.1950595378875732,0.1501048058271408,-2.440932512283325,3.973493814468384
1740558371.6482358,0.39929860830307007,0.020204616710543633,2.3593084812164307,-0.6628091335296631,-9.262602806091309,2.462845802307129,4.640912055969238,-1.4336521625518799,4.410813808441162
1740558371.8255634,0.39956071972846985,0.01994936726987362,2.4175057411193848,-0.18898631632328033,-9.272260665893555,2.125154972076416,3.4420807361602783,-0.7764434814453125,-0.4984349310398102
1740558372.0044415,0.39973482489585876,0.019843941554427147,2.471993923187256,-0.29415154457092285,-9.7377347946167,2.51507568359375,-2.8471646308898926,1.7279096841812134,0.9189199805259705
1740558372.1835053,0.4018203616142273,0.019606854766607285,2.5267081260681152,-0.5915764570236206,-9.541177749633789,2.565004348754883,3.2592597007751465,1.6653984785079956,3.8928799629211426
1740558372.3524268,0.40573742985725403,0.019299980252981186,2.587808609008789,-0.41214659810066223,-10.247567176818848,3.639587163925171,-4.527374267578125,1.653704285621643,-2.103259801864624
1740558372.5300817,0.4119468927383423,0.01893465407192707,2.6492559909820557,-0.3645249307155609,-11.072298049926758,1.7231920957565308,10.084251403808594,0.7508127093315125,1.6721866130828857
1740558372.7175918,0.41740739345550537,0.018507640808820724,2.7111589908599854,-0.45783478021621704,-9.597044944763184,2.1440212726593018,-6.173394680023193,0.35819211602211,3.473518133163452
1740558372.8995826,0.4241246283054352,0.018351268023252487,2.7734920978546143,-0.06773637235164642,-9.714900016784668,2.1870484352111816,-2.6179749965667725,-0.7441891431808472,0.09541676193475723
1740558373.0718358,0.42899125814437866,0.018158163875341415,2.829631805419922,-0.015176113694906235,-8.966592788696289,1.9868710041046143,4.758386611938477,-0.6763721108436584,2.7051773071289062
1740558373.2375095,0.43390753865242004,0.018055913969874382,2.8838295936584473,-0.5342735052108765,-10.440728187561035,2.3767149448394775,0.47794538736343384,1.008995532989502,-0.6572595834732056
1740558373.5131354,0.4393806755542755,0.01770305074751377,2.9442083835601807,0.27460139989852905,-7.7256669998168945,2.336296319961548,8.403450965881348,-1.184769630432129,2.2383065223693848
1740558373.7533586,0.447794646024704,0.017596973106265068,3.0370001792907715,-0.111160047352314,-9.075299263000488,2.614009380340576,3.6030900478363037,0.27579349279403687,-0.6735339760780334
1740558374.0129123,0.45428961515426636,0.017359185963869095,3.108325481414795,-0.5849982500076294,-9.527684211730957,2.982994318008423,-4.156746864318848,0.7749316692352295,6.2862396240234375
1740558374.2894378,0.4625984728336334,0.01714112050831318,3.1934096813201904,0.35504576563835144,-9.50484848022461,2.6591832637786865,-2.496673822402954,-1.280387043952942,-2.9064385890960693
1740558374.5142384,0.4721900522708893,0.01673344150185585,3.279956817626953,0.577945351600647,-8.234661102294922,1.346766710281372,2.4090771675109863,-1.3646100759506226,-5.1751179695129395
1740558374.710178,0.47811099886894226,0.015892282128334045,3.344204902648926,-0.027197474613785744,-9.735901832580566,2.0527496337890625,-2.1481919288635254,-1.4734225273132324,-2.0093181133270264
1740558374.8864388,0.4823709726333618,0.01554923690855503,3.4032251834869385,-0.05143774300813675,-9.16757869720459,2.4166715145111084,0.36550331115722656,-0.5282589793205261,-2.4640300273895264
1740558375.06356,0.48581036925315857,0.015234863385558128,3.450498104095459,0.4538165330886841,-8.321457862854004,1.6795488595962524,3.637988567352295,-0.09077145904302597,-1.3352688550949097
1740558375.2386377,0.48869022727012634,0.015092961490154266,3.5008137226104736,0.10544483363628387,-8.70054817199707,2.5262703895568848,-3.454671621322632,-1.3621617555618286,-0.9540680646896362
1740558375.4120467,0.49245190620422363,0.014931075274944305,3.5458736419677734,0.3669247329235077,-9.326216697692871,2.6637840270996094,-3.4889817237854004,-0.6676940321922302,-2.5994577407836914
1740558375.5844266,0.49722447991371155,0.01440786849707365,3.5937676429748535,-0.5244648456573486,-9.306649208068848,2.1072797775268555,-4.093886852264404,1.0319864749908447,1.279863953590393
1740558375.8069289,0.5018119812011719,0.014238634146749973,3.6395657062530518,-0.4803394079208374,-9.074823379516602,2.9585254192352295,0.5680915117263794,1.417035698890686,2.0430569648742676
1740558376.002983,0.5059022903442383,0.014001237228512764,3.6912124156951904,0.10583555698394775,-8.873664855957031,2.1759212017059326,-4.671478271484375,0.2445928156375885,-1.3306782245635986
1740558376.2611306,0.5090828537940979,0.013776120729744434,3.7372078895568848,-0.033145349472761154,-9.337706565856934,2.9846014976501465,-8.357444763183594,-0.07607569545507431,1.8905774354934692
1740558376.4410982,0.5150560140609741,0.013274291530251503,3.8080384731292725,-0.25611546635627747,-9.516027450561523,2.470970392227173,-2.5848886966705322,-2.1855525970458984,1.136995792388916
1740558376.6181781,0.520854115486145,0.012988447211682796,3.8607757091522217,0.3195357620716095,-9.237934112548828,2.4994242191314697,6.261355876922607,-1.8144532442092896,-5.342696666717529
1740558376.8053727,0.5260158181190491,0.012705733999609947,3.909946918487549,-0.3904160261154175,-8.738138198852539,1.4437847137451172,7.046615123748779,1.8962993621826172,6.967361927032471
1740558376.9805932,0.5309800505638123,0.012134983204305172,3.963118076324463,-0.11307079344987869,-9.329296112060547,2.2139620780944824,-0.7675347328186035,-2.3663103580474854,-2.319377899169922
1740558377.1594179,0.5346779227256775,0.01159181073307991,4.0174970626831055,0.2982350289821625,-8.983007431030273,2.4017128944396973,0.8915185332298279,-2.2654528617858887,-2.475338935852051
1740558377.343241,0.5383496284484863,0.011173702776432037,4.07105016708374,-0.19944024085998535,-9.385473251342773,2.782046318054199,1.684089183807373,0.33258217573165894,-1.3853538036346436
1740558377.5840895,0.5421885251998901,0.010442299768328667,4.124875068664551,-0.4401842951774597,-8.88694953918457,3.1577019691467285,-2.3664140701293945,1.1163902282714844,2.862600326538086
1740558377.82433,0.5475435853004456,0.00918467715382576,4.197005748748779,-1.4088778495788574,-10.669727325439453,3.5283708572387695,-7.464837551116943,1.3754881620407104,6.212377071380615
1740558378.037684,0.5527535080909729,0.008050675503909588,4.276061058044434,-0.1555316150188446,-9.505062103271484,1.9189130067825317,1.9269390106201172,-2.1417534351348877,1.5690972805023193
1740558378.2248154,0.5571718215942383,0.007130321580916643,4.341426849365234,0.1252530813217163,-9.29921817779541,1.859473705291748,10.226800918579102,1.244153380393982,-2.373849630355835
1740558378.4046803,0.5606984496116638,0.006368008442223072,4.407420635223389,-0.4341430366039276,-8.801529884338379,2.125453233718872,-0.20532028377056122,-0.7916678786277771,2.0343778133392334
1740558378.572422,0.5639684796333313,0.006081245373934507,4.4618330001831055,0.9602299332618713,-8.403428077697754,1.8519561290740967,-0.01987297087907791,-1.4965895414352417,1.1303889751434326
1740558378.745315,0.5692380666732788,0.005849979817867279,4.521338939666748,-0.11399239301681519,-9.397348403930664,2.9148051738739014,-5.141776084899902,-0.922178328037262,-3.1640734672546387
1740558378.926674,0.5730270147323608,0.005730815697461367,4.575448989868164,0.14386086165905,-8.833008766174316,2.1631863117218018,3.323160171508789,0.41713404655456543,0.017801349982619286
1740558379.1050782,0.577252984046936,0.005633619613945484,4.6342387199401855,-0.37550368905067444,-9.828962326049805,2.7792065143585205,-1.2256735563278198,-1.758647084236145,-1.4148982763290405
1740558379.27177,0.5788348317146301,0.004925573710352182,4.6881184577941895,-0.042083896696567535,-8.772345542907715,2.4795563220977783,-1.3336788415908813,-1.3711302280426025,0.2966744601726532
1740558379.443809,0.5791216492652893,0.004062199965119362,4.742558002471924,-0.4016018211841583,-8.93591022491455,2.7051169872283936,-4.417327880859375,-0.7363466024398804,4.150187969207764
1740558379.6663063,0.5792128443717957,0.0032889829017221928,4.8021440505981445,-0.09490486979484558,-7.164535999298096,0.9694938659667969,6.194399356842041,-3.2426135540008545,1.4263964891433716
1740558379.8489368,0.5794641375541687,0.0020906913559883833,4.8744797706604,-0.40970954298973083,-9.468491554260254,3.475525379180908,-5.287600994110107,-3.2431933879852295,-0.357232928276062
1740558380.0165284,0.5785406231880188,0.0018980723107233644,4.93826150894165,-0.6440454721450806,-10.772381782531738,2.5482747554779053,5.781688690185547,-4.1622233390808105,0.04390844330191612
1740558380.1926062,0.5756435990333557,0.0014119896804913878,4.9965925216674805,-1.0371875762939453,-10.276988983154297,3.0452630519866943,-4.78038215637207,-3.193789005279541,4.9782562255859375
1740558380.3552332,0.5715360045433044,-0.002727261045947671,5.060502529144287,-0.6473450064659119,-10.42851734161377,3.2636911869049072,2.7664506435394287,-4.455351829528809,0.11423392593860626
1740558380.545657,0.5671138167381287,-0.0018557446310296655,5.12883186340332,-0.9316104650497437,-11.320568084716797,2.31504225730896,-9.862709999084473,-0.8268038034439087,1.1727912425994873
1740558380.7473342,0.5558284521102905,-0.0028900722973048687,5.186100482940674,-0.4479701817035675,-9.505692481994629,1.7541675567626953,-0.22238194942474365,-1.1748411655426025,3.111823558807373
1740558380.9309714,0.5498566627502441,-0.002975625451654196,5.259636402130127,-0.31590574979782104,-9.873773574829102,2.6647753715515137,-2.7236576080322266,-2.8194329738616943,2.063596725463867
1740558381.132989,0.5398927330970764,-0.0036270800046622753,5.331496715545654,-0.46896499395370483,-9.894599914550781,3.3043406009674072,-0.2718977928161621,-1.6297674179077148,1.9102455377578735
1740558381.3289673,0.5297648906707764,-0.0038721305318176746,5.40401554107666,-0.26436859369277954,-11.71080493927002,3.287543773651123,-1.5765591859817505,-7.805269718170166,-1.7752491235733032
1740558381.504454,0.5183957815170288,-0.01890031062066555,5.469185829162598,-0.02157779224216938,-9.16039752960205,1.2732832431793213,4.511538982391357,-4.379327774047852,2.716334581375122
1740558381.7153134,0.502997875213623,-0.02212158590555191,5.533727645874023,-0.41354137659072876,-10.309954643249512,2.7140884399414062,-3.23508358001709,-5.09388542175293,2.7731945514678955
1740558381.8895519,0.48163509368896484,-0.04778533801436424,5.510559558868408,-0.4417693316936493,-10.211968421936035,2.4814720153808594,0.47171133756637573,-5.917197227478027,-0.4540962874889374
1740558382.0686285,0.4676252007484436,-0.04922939091920853,5.567738056182861,0.01575864478945732,-9.611471176147461,1.8462767601013184,-6.830688953399658,-5.36194372177124,-3.8105685710906982
1740558382.243816,0.45464253425598145,-0.05065320059657097,5.628223896026611,-0.2256002575159073,-9.394882202148438,2.6996686458587646,-1.705661654472351,-6.365837574005127,-0.0880933478474617
1740558382.4353738,0.43445050716400146,-0.051547251641750336,5.6902666091918945,0.20057399570941925,-9.53817081451416,2.4214937686920166,1.292462706565857,-5.827800273895264,-3.515340566635132
1740558382.6054423,0.4100607633590698,-0.055636487901210785,5.750189781188965,0.022828642278909683,-9.859187126159668,1.8912965059280396,0.7336703538894653,-7.917585372924805,1.2433809041976929
1740558382.782254,0.38872408866882324,-0.05580464377999306,5.8035173416137695,-0.06564216315746307,-8.47189712524414,2.247931480407715,2.071317434310913,-4.698655128479004,2.5443811416625977
1740558382.9581282,0.3607885241508484,-0.0581260547041893,5.860185623168945,0.215857595205307,-10.110421180725098,1.620176911354065,5.825314521789551,-9.651883125305176,-0.19517241418361664
1740558383.1743464,0.33288827538490295,-0.06436902284622192,5.918690204620361,-0.5014998316764832,-9.47903823852539,2.6471314430236816,-7.424686431884766,-6.676722049713135,4.340573787689209
1740558383.3578646,0.30093756318092346,-0.06579501181840897,5.986701488494873,0.032154474407434464,-9.526071548461914,2.0410830974578857,7.230453014373779,-8.461045265197754,-0.9440576434135437
1740558383.5289521,0.2683994770050049,-0.06918695569038391,6.040755748748779,0.01694660633802414,-9.639467239379883,2.7635550498962402,2.9119319915771484,-9.474339485168457,-0.7224580645561218
1740558383.7313151,0.24114716053009033,-0.07000178843736649,6.090770721435547,0.7078092098236084,-9.059364318847656,1.990923285484314,-7.972538471221924,-7.330099105834961,4.339298248291016
1740558383.931795,0.1946881264448166,-0.07027167826890945,6.1499857902526855,-0.5068246126174927,-9.644211769104004,3.079540491104126,-7.117481708526611,-12.681098937988281,-0.5198040008544922
1740558384.117831,0.15766417980194092,-0.07144385576248169,6.199921131134033,-0.1378500908613205,-10.797551155090332,2.8966987133026123,-14.224966049194336,-17.45344352722168,-11.281218528747559
1740558384.2938583,0.11326156556606293,-0.05662659555673599,6.239643096923828,-0.626875102519989,-9.38309097290039,2.0859484672546387,1.427627682685852,-14.809033393859863,5.941829204559326
1740558384.4698665,0.06419271230697632,-0.0567290261387825,6.281397819519043,-0.2521514296531677,-9.952754974365234,2.987046718597412,-13.603446960449219,-12.067561149597168,0.8584066033363342
1740558384.6457155,0.025527816265821457,-0.05825415998697281,6.319645881652832,-0.37052425742149353,-8.916374206542969,2.528022050857544,4.772802829742432,-11.784217834472656,5.464768409729004
1740558384.8105135,-0.027596907690167427,-0.059345293790102005,6.36013650894165,-0.4529779255390167,-9.962081909179688,3.7569925785064697,-2.69245982170105,-10.796483993530273,5.889273166656494
1740558384.9938998,-0.08026202023029327,-0.06192426010966301,6.4053521156311035,-0.22323982417583466,-9.136282920837402,0.7943913340568542,7.221247673034668,-9.724228858947754,1.2680782079696655
1740558385.191974,-0.133567214012146,-0.06218068301677704,6.4391303062438965,-0.31323549151420593,-9.375448226928711,2.3661937713623047,3.0937516689300537,-11.416723251342773,5.113516807556152
1740558385.3699331,-0.19531168043613434,-0.06230109930038452,6.4803972244262695,-0.08206549286842346,-10.097947120666504,2.040544033050537,-1.9458856582641602,-15.305885314941406,0.7052559852600098
1740558385.5479958,-0.2503401041030884,-0.062320008873939514,6.516508102416992,-0.12255746126174927,-8.587352752685547,3.9471209049224854,-0.6046207547187805,-14.80816650390625,4.630507469177246
1740558385.7305968,-0.3217434287071228,-0.06189529597759247,6.5564494132995605,-0.48666322231292725,-9.038858413696289,4.061398029327393,-7.042248249053955,-12.826163291931152,5.505993843078613
1740558385.9229167,-0.38546350598335266,-0.06178271770477295,6.585193634033203,-0.28262650966644287,-9.299620628356934,2.608551025390625,-4.243537902832031,-14.192018508911133,-0.23931339383125305
1740558386.1201694,-0.4633568823337555,-0.061379726976156235,6.620550632476807,-0.03178432211279869,-8.863727569580078,1.7691935300827026,13.914436340332031,-13.184737205505371,3.0524203777313232
1740558386.29302,-0.5381963849067688,-0.06144944578409195,6.649617671966553,0.05597570911049843,-5.596713542938232,1.9736641645431519,8.492984771728516,-12.706161499023438,13.271088600158691
1740558386.4607756,-0.6150868535041809,-0.06125727668404579,6.6774139404296875,-0.46433496475219727,-10.377994537353516,3.328953981399536,-1.9031524658203125,-15.124129295349121,4.693947792053223
1740558386.6813607,-0.6820496916770935,-0.061160050332546234,6.7021050453186035,-0.3767681419849396,-8.857773780822754,1.7927379608154297,8.401871681213379,-12.367461204528809,6.196885108947754
1740558386.8671691,-0.7744361758232117,-0.06057790666818619,6.728936672210693,-0.8464066386222839,-9.970595359802246,2.5869994163513184,4.355220317840576,-9.97654914855957,3.9466896057128906
1740558387.0519786,-0.8532866835594177,-0.06059611961245537,6.747715950012207,0.13160379230976105,-9.3524808883667,2.3465569019317627,4.539761066436768,-13.631333351135254,3.416933536529541
1740558387.2298315,-0.9318490624427795,-0.06059849262237549,6.762560844421387,0.23244620859622955,-9.414977073669434,1.6094344854354858,-17.69222068786621,-9.853287696838379,-3.101789712905884
1740558387.4080217,-1.008306622505188,-0.06044091284275055,6.77655553817749,-0.23625850677490234,-9.08906364440918,-0.2189139425754547,14.382827758789062,-4.235296726226807,0.7588885426521301
1740558387.578234,-1.0704046487808228,-0.05975155904889107,6.794912338256836,-0.2444871962070465,-10.354227066040039,2.524874210357666,5.507351875305176,-7.161961078643799,-2.0399539470672607
1740558387.8396752,-1.1513320207595825,-0.059308916330337524,6.812301158905029,-0.16978506743907928,-9.083266258239746,1.7736403942108154,0.8432409763336182,-6.080142974853516,3.3514137268066406
1740558388.02806,-1.240376353263855,-0.058411985635757446,6.831993103027344,-0.32294854521751404,-9.71623706817627,2.4915883541107178,0.772363543510437,-7.4537434577941895,0.7657877206802368
1740558388.2022579,-1.3168964385986328,-0.058180417865514755,6.846052646636963,-0.46726155281066895,-9.008216857910156,1.8567012548446655,4.554284572601318,-4.930347919464111,1.1539143323898315
1740558388.3792565,-1.3770298957824707,-0.05697382614016533,6.857083797454834,-0.2626771628856659,-10.360087394714355,1.849414587020874,2.7109718322753906,-6.709029197692871,-2.086500883102417
1740558388.559024,-1.4423044919967651,-0.05674019828438759,6.865447044372559,-0.18467582762241364,-11.412088394165039,4.119912624359131,-19.810340881347656,-4.733669281005859,-1.0575051307678223
1740558388.7274494,-1.5044199228286743,-0.0538036972284317,6.874162673950195,-1.038072109222412,-9.386187553405762,1.7665077447891235,16.841089248657227,-6.400726795196533,5.025544166564941
1740558388.9223886,-1.5654919147491455,-0.053642094135284424,6.878579139709473,-0.05616740882396698,-8.55268383026123,2.1963083744049072,-1.2475974559783936,-5.924582004547119,2.011146068572998
1740558389.1108727,-1.6297900676727295,-0.05329106003046036,6.884210586547852,0.5227741003036499,-7.99693489074707,1.5091917514801025,-0.4546552896499634,-6.212751865386963,3.4457433223724365
1740558389.418648,-1.7108839750289917,-0.05230632796883583,6.885843753814697,0.13948912918567657,-9.603642463684082,1.7326828241348267,-7.7481913566589355,-7.96090841293335,-2.261644124984741
1740558389.6272333,-1.8295310735702515,-0.052742596715688705,6.884271144866943,0.07519663870334625,-8.989553451538086,1.770492672920227,12.824578285217285,-10.443427085876465,0.4923986494541168
1740558389.8285916,-1.9097007513046265,-0.05319303646683693,6.881843566894531,0.12357304990291595,-9.434820175170898,3.0332884788513184,-12.123612403869629,-9.648605346679688,-2.7629573345184326
1740558390.0096564,-1.9886298179626465,-0.053326744586229324,6.8769426345825195,-0.40237829089164734,-10.136980056762695,3.1923539638519287,-5.622077941894531,-6.605373382568359,-0.31394025683403015
1740558390.186994,-2.0611767768859863,-0.05396709218621254,6.869300365447998,-0.34601327776908875,-9.436495780944824,1.8894480466842651,4.297015190124512,-5.838411331176758,1.779761791229248
1740558390.3540645,-2.1282548904418945,-0.054275400936603546,6.861421585083008,-0.31224241852760315,-8.499789237976074,1.5136386156082153,5.901529788970947,-6.494662761688232,3.0592706203460693
1740558390.5225205,-2.1932411193847656,-0.05441692844033241,6.855759143829346,-0.49072134494781494,-6.9859724044799805,1.5587354898452759,-2.0691490173339844,-3.379197835922241,11.862655639648438
1740558390.6927242,-2.2634613513946533,-0.05516446381807327,6.848147392272949,0.17012947797775269,-9.113412857055664,1.9464325904846191,2.5793888568878174,-7.828340530395508,-2.031959295272827
1740558390.8680522,-2.3473610877990723,-0.055142853409051895,6.836353778839111,-0.6976346969604492,-10.181209564208984,3.3893072605133057,-6.938576698303223,-4.57246732711792,0.42156291007995605
1740558391.033603,-2.4120802879333496,-0.05496272072196007,6.825607776641846,-0.6905301809310913,-9.785979270935059,3.4300339221954346,-8.0049467086792,-4.461071491241455,1.5358245372772217
1740558391.1943076,-2.4817793369293213,-0.05623329058289528,6.815885066986084,0.25489065051078796,-9.785980224609375,2.621276378631592,-3.3350186347961426,-5.838301181793213,-2.1180596351623535
1740558391.400938,-2.5555496215820312,-0.05629389360547066,6.8026556968688965,-0.20158106088638306,-9.048880577087402,2.40737247467041,0.3764426112174988,-2.3567709922790527,2.263338565826416
1740558391.5665686,-2.6298863887786865,-0.057317767292261124,6.792041778564453,-0.8230590224266052,-9.797231674194336,2.8782846927642822,-11.236804962158203,0.2540491223335266,3.252562999725342
1740558391.7477467,-2.7033636569976807,-0.060639187693595886,6.7830705642700195,-0.2910138964653015,-9.432405471801758,3.527283191680908,-8.62566089630127,0.7317463755607605,-0.5932618975639343
1740558391.9202452,-2.766289234161377,-0.05897511541843414,6.780094146728516,0.6672837138175964,-9.857095718383789,1.9507256746292114,-2.8365910053253174,1.1713356971740723,-5.771188259124756
1740558392.103946,-2.8398196697235107,-0.061385177075862885,6.773523330688477,-0.9779619574546814,-10.445847511291504,3.0800697803497314,-9.01109790802002,3.1580917835235596,-1.8083387613296509
1740558392.289948,-2.904775619506836,-0.06109590083360672,6.773498058319092,-0.018261704593896866,-8.743239402770996,2.2932493686676025,1.0988136529922485,1.508941411972046,0.18194086849689484
1740558392.4723446,-2.9897940158843994,-0.06139271333813667,6.773582458496094,0.050734810531139374,-9.102550506591797,2.27882981300354,-3.3342676162719727,5.102427959442139,-1.6406410932540894
1740558392.6464689,-3.0550460815429688,-0.06400807946920395,6.7738237380981445,-0.13407239317893982,-8.830581665039062,1.7085992097854614,5.74353551864624,4.337778568267822,1.6777209043502808
1740558392.812763,-3.1351256370544434,-0.06390745937824249,6.775750637054443,-1.0679739713668823,-9.666884422302246,2.7830278873443604,3.749943733215332,4.910042762756348,2.558145046234131
1740558392.9935744,-3.2125370502471924,-0.06332634389400482,6.780816555023193,-0.3462391495704651,-10.04162883758545,2.0410730838775635,-8.69105339050293,2.8434224128723145,-1.1216212511062622
1740558393.1725824,-3.2791075706481934,-0.06333232671022415,6.782109260559082,-0.5540104508399963,-10.207874298095703,2.6709742546081543,-12.298539161682129,0.9415721893310547,1.8810516595840454
1740558393.3393383,-3.3436946868896484,-0.06427144259214401,6.78761625289917,-0.27156326174736023,-9.929343223571777,3.184682607650757,1.438585877418518,2.409318685531616,0.12535570561885834
1740558393.5256314,-3.409050941467285,-0.0643589049577713,6.792163848876953,0.7130682468414307,-8.448678016662598,1.4846458435058594,6.253245830535889,1.1221712827682495,-2.9588887691497803
1740558393.687548,-3.4762027263641357,-0.06363587081432343,6.798892021179199,-0.6988036632537842,-9.922102928161621,2.418952465057373,-0.8292710185050964,2.598947286605835,-1.4538661241531372
1740558393.8798132,-3.533611297607422,-0.06381858885288239,6.805748462677002,-0.39748409390449524,-9.153183937072754,3.0465524196624756,3.449122905731201,2.072737693786621,0.44543352723121643
1740558394.0647624,-3.6043930053710938,-0.06393341720104218,6.8129072189331055,-0.0755896121263504,-10.420174598693848,2.459293842315674,-1.5019491910934448,3.041259527206421,-2.768197536468506
1740558394.231976,-3.6641342639923096,-0.06397626549005508,6.820148944854736,-0.09387081116437912,-9.673720359802246,1.8672798871994019,7.159914970397949,2.4217562675476074,-2.2959868907928467
1740558394.4105344,-3.727410316467285,-0.0649278536438942,6.828046798706055,-0.6779595017433167,-10.194337844848633,2.846529006958008,-0.7926939129829407,5.2213921546936035,-0.12091988325119019
1740558394.6002831,-3.7829787731170654,-0.06502852588891983,6.837442398071289,0.07762978971004486,-8.577364921569824,1.6743119955062866,7.616894721984863,0.7814697027206421,0.9618226885795593
1740558394.8066208,-3.8508071899414062,-0.06570333242416382,6.8466715812683105,-0.026804005727171898,-9.505000114440918,3.3647618293762207,-4.925872325897217,3.8544585704803467,-5.419025421142578
1740558394.9960508,-3.913947343826294,-0.06628476083278656,6.856706619262695,-0.2043411135673523,-9.328020095825195,2.6777987480163574,-5.516173839569092,3.551348924636841,0.75851970911026
1740558395.1898916,-3.966980457305908,-0.06647689640522003,6.8656511306762695,-0.5065857768058777,-10.1507568359375,2.772824287414551,-4.0796427726745605,3.109498977661133,-1.288439154624939
1740558395.364519,-4.020748615264893,-0.06682165712118149,6.8764753341674805,-0.796208381652832,-10.284134864807129,2.2973110675811768,-1.1317888498306274,4.619296073913574,-2.371582508087158
1740558395.5385723,-4.075073719024658,-0.06710387021303177,6.8885979652404785,-0.09067185968160629,-9.47610855102539,3.094027042388916,-4.0214433670043945,6.5197529792785645,-1.0907686948776245
1740558395.7396188,-4.125336170196533,-0.06725258380174637,6.90538215637207,0.09201114624738693,-9.722529411315918,1.5814329385757446,0.33970025181770325,7.046113014221191,-2.7544379234313965
1740558395.9100301,-4.171493053436279,-0.06734910607337952,6.927217960357666,-0.031983014196157455,-9.26382827758789,1.8193435668945312,-2.0142595767974854,4.516574859619141,-1.708984375
1740558396.0813596,-4.213550090789795,-0.06800150871276855,6.948288440704346,-0.14598143100738525,-10.087848663330078,1.674389123916626,3.8413736820220947,4.981533527374268,-2.449313163757324
1740558396.255211,-4.247146129608154,-0.06804872304201126,6.964754581451416,-0.018982352688908577,-9.499131202697754,2.8202219009399414,-4.139583587646484,5.286916255950928,-2.2062625885009766
1740558396.4385269,-4.279242515563965,-0.06904901564121246,6.983457565307617,-0.11340019106864929,-9.174437522888184,2.237718105316162,0.7554636597633362,4.496217250823975,-1.6600865125656128
1740558396.614802,-4.3065290451049805,-0.06851907819509506,6.99880313873291,-0.04202953726053238,-9.49332332611084,2.2499139308929443,0.41930124163627625,8.24209213256836,-0.9793288707733154
1740558396.8637507,-4.331655979156494,-0.06843119114637375,7.019196510314941,-0.07531379908323288,-9.302862167358398,2.2186977863311768,0.42633044719696045,14.081027030944824,-2.2679383754730225
1740558397.060915,-4.357816219329834,-0.0677843987941742,7.0513787269592285,0.09596650302410126,-9.290385246276855,2.2186977863311768,0.9193329215049744,16.299686431884766,-4.027278900146484
1740558397.247486,-4.369758605957031,-0.06687550246715546,7.0870256423950195,-0.1421004980802536,-9.612929344177246,2.3589742183685303,1.3606257438659668,15.154083251953125,-4.005075931549072
1740558397.475079,-4.377306938171387,-0.06653682142496109,7.124035835266113,-0.28983625769615173,-9.397088050842285,2.5442700386047363,-0.46105486154556274,16.759105682373047,-4.109367847442627
1740558397.6549058,-4.387266159057617,-0.06519448012113571,7.166845798492432,-0.10683488845825195,-9.772982597351074,2.6773366928100586,-1.898064136505127,15.98853874206543,-5.367098331451416
1740558397.8765802,-4.394060134887695,-0.06429709494113922,7.207552909851074,-0.2774181365966797,-9.367633819580078,2.1232872009277344,1.5854697227478027,13.910078048706055,-3.622755527496338
1740558398.0915816,-4.397784233093262,-0.06365044414997101,7.251031875610352,-0.25668835639953613,-9.51390552520752,2.6679039001464844,-1.1325232982635498,14.284988403320312,-5.169203281402588
1740558398.285964,-4.401092052459717,-0.06261895596981049,7.288849353790283,0.07233291864395142,-9.354458808898926,2.0732038021087646,1.657434344291687,13.681265830993652,-2.304948329925537
1740558398.4685142,-4.402262210845947,-0.06148941442370415,7.3229146003723145,-0.018814537674188614,-9.072579383850098,2.6725049018859863,-1.2214044332504272,13.175777435302734,-6.104229927062988
1740558398.6457546,-4.401727199554443,-0.059826090931892395,7.355099678039551,-0.12569177150726318,-9.670357704162598,2.532151222229004,2.9844398498535156,14.294849395751953,-4.46583366394043
1740558398.8347616,-4.399862289428711,-0.05845493823289871,7.390020847320557,-0.15907371044158936,-9.315751075744629,2.5818493366241455,-0.1773267388343811,15.298138618469238,-3.7884092330932617
1740558399.0093582,-4.395679473876953,-0.05815344303846359,7.426214218139648,-0.1943470537662506,-9.965337753295898,2.26578688621521,0.29419782757759094,16.988197326660156,-1.7124279737472534
1740558399.1903663,-4.38760232925415,-0.05793505907058716,7.463825702667236,-0.14435157179832458,-9.350719451904297,2.2275917530059814,0.14336596429347992,16.052644729614258,-4.8351569175720215
1740558399.3622224,-4.380018711090088,-0.057824987918138504,7.49800443649292,-0.19382943212985992,-9.512063026428223,1.849558711051941,2.1862940788269043,14.280143737792969,-3.2634029388427734
1740558399.6169696,-4.370866775512695,-0.05777347460389137,7.531660079956055,-0.027382660657167435,-9.299674034118652,1.9017112255096436,2.405022382736206,13.032405853271484,-2.371326446533203
1740558399.81435,-4.355635643005371,-0.05774273723363876,7.5749311447143555,0.06299461424350739,-8.830310821533203,1.9256410598754883,2.69291353225708,14.207090377807617,-5.334716320037842
1740558399.9930925,-4.343759059906006,-0.05678870901465416,7.605088710784912,-0.17580296099185944,-9.189709663391113,2.63883376121521,1.8127915859222412,16.10742950439453,3.943955421447754
1740558400.1804566,-4.331133842468262,-0.05667562410235405,7.635977268218994,-0.4655162990093231,-9.968535423278809,2.227360725402832,0.8321952819824219,16.021135330200195,-4.568212509155273
1740558400.4071035,-4.310372352600098,-0.057057347148656845,7.6662187576293945,-0.013771472498774529,-9.203049659729004,2.4320626258850098,-0.4771728813648224,16.736312866210938,-5.3088507652282715
1740558400.669051,-4.282694339752197,-0.057113561779260635,7.699860572814941,-0.235250324010849,-9.17078971862793,2.607694625854492,-1.4716885089874268,17.285259246826172,-4.88227653503418
1740558400.8864698,-4.256046295166016,-0.05668127164244652,7.728822708129883,0.03600715845823288,-8.888813972473145,2.565051794052124,-0.3553944230079651,18.493566513061523,-4.16068172454834
1740558401.0859358,-4.223208904266357,-0.05661571025848389,7.754840850830078,-0.25842657685279846,-9.660444259643555,2.1202163696289062,0.31029969453811646,19.422077178955078,-3.768650770187378
1740558401.2641146,-4.188136100769043,-0.055711086839437485,7.775755405426025,0.001124475384131074,-9.21151351928711,1.9253329038619995,1.6861348152160645,19.534866333007812,-5.362663745880127
1740558401.4679513,-4.153590679168701,-0.055174559354782104,7.788065433502197,0.2908959686756134,-8.868342399597168,2.279513120651245,-3.4609148502349854,21.529529571533203,-9.049871444702148
1740558401.655019,-4.1129841804504395,-0.05422712117433548,7.7938551902771,0.39111194014549255,-9.146136283874512,2.036924362182617,-1.7544834613800049,23.79962730407715,-9.044668197631836
1740558401.8582814,-4.069305896759033,-0.05323561653494835,7.796289443969727,0.6974263191223145,-7.645804405212402,2.488816022872925,-0.3991416394710541,29.342605590820312,-7.49160099029541
1740558402.0561888,-4.0022687911987305,-0.053203433752059937,7.794924736022949,-0.1604505181312561,-9.564186096191406,1.7755461931228638,4.6390380859375,31.125900268554688,-6.932426929473877
1740558402.2360108,-3.9454665184020996,-0.05322117358446121,7.787785053253174,-0.6897690892219543,-9.696374893188477,2.707166910171509,-2.042764902114868,30.893815994262695,-4.988260746002197
1740558402.4176672,-3.8898050785064697,-0.05357982963323593,7.776873588562012,-1.9379338026046753,-12.492593765258789,2.107943534851074,11.88875675201416,22.990848541259766,-2.38641619682312
1740558402.603124,-3.838589906692505,-0.05391467735171318,7.761202812194824,-0.051561810076236725,-9.307432174682617,2.1792705059051514,1.5511685609817505,20.53934669494629,-3.4978530406951904
1740558402.7860587,-3.7995972633361816,-0.054002974182367325,7.74450159072876,-0.04697786644101143,-9.767314910888672,2.331742763519287,2.289522171020508,21.13009262084961,-6.765929222106934
1740558402.9576168,-3.76534104347229,-0.0540606752038002,7.727053642272949,-0.13485363125801086,-9.679286003112793,2.2224514484405518,-0.03757379204034805,22.162769317626953,-5.342008113861084
1740558403.1388824,-3.7351126670837402,-0.0539993941783905,7.7091755867004395,-0.14931929111480713,-9.412882804870605,2.355210304260254,0.011658879928290844,20.921310424804688,-5.378769874572754
1740558403.318284,-3.7026073932647705,-0.053839508444070816,7.687054634094238,0.06285783648490906,-9.22331428527832,1.9840788841247559,1.719354271888733,23.890682220458984,-7.438828468322754
1740558403.4939122,-3.668088912963867,-0.0529780387878418,7.6646623611450195,0.12371128052473068,-9.393769264221191,2.783172130584717,0.7979189157485962,26.9160099029541,-6.219841003417969
1740558403.6718628,-3.631366014480591,-0.05286872759461403,7.6377363204956055,-0.13658756017684937,-9.030525207519531,1.6942470073699951,3.4861364364624023,28.217010498046875,-8.38249683380127
1740558403.857718,-3.6028711795806885,-0.052761733531951904,7.5994672775268555,-0.36055758595466614,-9.188981056213379,1.9699674844741821,5.271007537841797,24.232128143310547,-2.1138336658477783
1740558404.0351448,-3.566380262374878,-0.05261559039354324,7.562846660614014,-0.3919788599014282,-9.508942604064941,2.357433795928955,2.2058587074279785,26.197498321533203,-8.597982406616211
1740558404.3258703,-3.537705421447754,-0.052546124905347824,7.522276401519775,-0.6107807159423828,-9.516756057739258,2.324378728866577,0.06876157224178314,24.26860237121582,-5.151458740234375
1740558404.541982,-3.4998228549957275,-0.052534155547618866,7.457860946655273,-0.7277707457542419,-10.265486717224121,2.640209913253784,-0.9884056448936462,23.22275733947754,-3.2338271141052246
1740558404.751204,-3.480034589767456,-0.05348940193653107,7.402851581573486,-0.3611096143722534,-9.811323165893555,2.390488862991333,-3.817362070083618,21.898460388183594,-9.256492614746094
1740558404.9421055,-3.464771032333374,-0.05364115908741951,7.353936195373535,-0.8915817737579346,-10.384567260742188,2.3738458156585693,1.3093149662017822,17.516517639160156,-5.641759872436523
1740558405.1353674,-3.4543862342834473,-0.05376507714390755,7.31258487701416,-0.9388545155525208,-9.553149223327637,2.1215927600860596,0.4743361473083496,9.822769165039062,-2.0808908939361572
1740558405.344885,-3.4491138458251953,-0.05385728180408478,7.281625270843506,-0.7368744611740112,-9.517111778259277,2.299910068511963,-0.1410040706396103,-1.4893444776535034,0.6205042600631714
1740558405.5906682,-3.448137044906616,-0.05351438745856285,7.27349328994751,-0.3587552607059479,-9.396991729736328,2.4022226333618164,-0.8768624663352966,-7.98344612121582,1.9085193872451782
1740558405.7591567,-3.345245122909546,-0.12929227948188782,7.3752055168151855,-0.04724374786019325,-9.353348731994629,2.526394844055176,0.409928560256958,-6.235270023345947,1.4329487085342407
1740558405.9325304,-3.3436708450317383,-0.12943324446678162,7.388556480407715,0.033731136471033096,-9.326702117919922,2.438117027282715,0.36899587512016296,-2.3810994625091553,0.16405537724494934
1740558406.262901,-3.3384625911712646,-0.12932534515857697,7.397175312042236,-0.5014824271202087,-9.673705101013184,2.404754161834717,-0.02669638581573963,3.325934410095215,-0.2840675115585327
1740558406.4630337,-3.301581382751465,-0.12905727326869965,7.393359184265137,-0.22744756937026978,-9.15770149230957,2.036154270172119,2.576782703399658,7.865697860717773,-0.5702970027923584
1740558406.6936991,-3.266052007675171,-0.1279512494802475,7.382815361022949,-0.36331337690353394,-9.346724510192871,2.2598764896392822,1.2360622882843018,6.977549076080322,-2.368713855743408
1740558406.8901832,-3.2247672080993652,-0.12735745310783386,7.365732192993164,-0.45581310987472534,-9.665624618530273,2.0144481658935547,2.4994471073150635,4.576239109039307,-4.035565376281738
1740558407.0740616,-3.1882050037384033,-0.12556029856204987,7.355907440185547,-0.3614254295825958,-9.133103370666504,2.6207275390625,1.2803635597229004,1.9922906160354614,0.18344458937644958
1740558407.2875948,-3.1475775241851807,-0.1249334067106247,7.342682361602783,-0.0724748820066452,-9.997232437133789,1.760279655456543,5.191150188446045,0.0033253682777285576,-0.8919336199760437
1740558407.5170624,-3.0953097343444824,-0.12354753166437149,7.33850622177124,-0.5777825117111206,-8.674055099487305,2.528079032897949,-1.27487313747406,-3.901698589324951,2.9210703372955322
1740558407.7801774,-3.033379554748535,-0.12159347534179688,7.339388847351074,-0.21106979250907898,-10.055804252624512,2.2452261447906494,-0.5770519375801086,-4.931346893310547,-3.1439595222473145
1740558407.9654117,-2.9572348594665527,-0.11878602206707001,7.351884365081787,-0.4186806082725525,-9.859810829162598,2.736997127532959,-2.936133861541748,-4.169360637664795,0.6473813652992249
1740558408.1534982,-2.897296190261841,-0.11733406037092209,7.365604400634766,-0.6258500218391418,-9.870375633239746,2.9107906818389893,-4.834213733673096,-4.567677974700928,2.901646375656128
1740558408.3737605,-2.8369176387786865,-0.1152530387043953,7.379287242889404,-0.5952996015548706,-10.692397117614746,3.2031543254852295,-11.487845420837402,-6.781747817993164,1.1472084522247314
1740558408.570045,-2.767133951187134,-0.11319341510534286,7.3941144943237305,-0.17772355675697327,-9.19017505645752,4.090217113494873,1.2197762727737427,-4.942302227020264,2.575900077819824
1740558408.7521605,-2.692502975463867,-0.11135247349739075,7.409453868865967,-0.8240278363227844,-11.017539024353027,3.471588134765625,-1.670817494392395,-5.232844352722168,2.2859079837799072
1740558408.9506676,-2.6202855110168457,-0.10923612862825394,7.430130958557129,-0.631100058555603,-7.483767032623291,1.4176021814346313,-1.2756483554840088,-1.0664145946502686,-2.341262102127075
1740558409.1387992,-2.5416533946990967,-0.10698539018630981,7.445541858673096,-0.2683826684951782,-9.079960823059082,2.399383068084717,-0.6811692118644714,-4.800012111663818,2.943939685821533
1740558409.3846045,-2.469534397125244,-0.10441750288009644,7.463841915130615,-0.2898998260498047,-9.084953308105469,2.4801430702209473,5.9259233474731445,2.025432825088501,1.9942609071731567
1740558409.5962436,-2.3928074836730957,-0.10128218680620193,7.4780378341674805,-0.45161938667297363,-9.633116722106934,2.444479465484619,1.6295838356018066,2.446303606033325,1.4737521409988403
1740558409.8556266,-2.2738943099975586,-0.09546081721782684,7.49038028717041,-0.444186270236969,-10.042201042175293,2.206645965576172,-5.012247085571289,2.233670473098755,-2.2491583824157715
1740558410.0550542,-2.161189317703247,-0.09071622043848038,7.500582218170166,-0.40736740827560425,-9.22964096069336,3.1958673000335693,-1.0469775199890137,2.869593381881714,1.4865775108337402
1740558410.2456734,-2.07023024559021,-0.08738336712121964,7.507113933563232,-0.8887966275215149,-9.714695930480957,2.018895149230957,1.0695987939834595,-0.13584262132644653,-1.3861582279205322
1740558410.424202,-1.9837645292282104,-0.08422244340181351,7.516777038574219,-0.39856991171836853,-8.755511283874512,1.8809963464736938,1.1681864261627197,1.852189540863037,1.8322598934173584
1740558410.6099744,-1.9025633335113525,-0.08203125,7.522393703460693,-0.3494883179664612,-8.354269027709961,2.568035840988159,2.2147722244262695,-2.4434311389923096,4.234216213226318
1740558410.8164778,-1.8242433071136475,-0.07949024438858032,7.530699253082275,-0.035863809287548065,-10.032601356506348,2.860168933868408,-3.829521894454956,-3.345473527908325,-2.073375940322876
1740558410.9859164,-1.7394341230392456,-0.07610742747783661,7.542783737182617,-0.05559886619448662,-10.113412857055664,1.5455286502838135,3.7373151779174805,-2.7634809017181396,-4.7388505935668945
1740558411.1739354,-1.6711492538452148,-0.0723855271935463,7.55746603012085,-0.34447968006134033,-9.315871238708496,2.358579158782959,-1.0292961597442627,-6.211034297943115,0.8089461326599121
1740558411.3747315,-1.5842393636703491,-0.07077954709529877,7.579346656799316,0.0767848789691925,-8.228297233581543,2.2041141986846924,0.3982190787792206,-5.4050517082214355,-2.0409646034240723
1740558411.6160028,-1.5176645517349243,-0.07030211389064789,7.600278377532959,-0.3890620768070221,-9.045998573303223,1.8832969665527344,-0.2644462287425995,-1.659254550933838,5.597452163696289
1740558411.8766901,-1.4193227291107178,-0.0689954087138176,7.64145040512085,-0.2131616771221161,-9.445655822753906,1.9805461168289185,3.7937612533569336,-7.041060447692871,2.284716844558716
1740558412.0723867,-1.3176839351654053,-0.06282409280538559,7.680408477783203,-0.8178772926330566,-10.590371131896973,4.227191925048828,-14.042001724243164,-8.547219276428223,-0.651131808757782
1740558412.2592325,-1.2443914413452148,-0.059654563665390015,7.712543964385986,-0.34112411737442017,-8.24510669708252,1.5761289596557617,7.856840133666992,-7.98222017288208,1.7839113473892212
1740558412.450192,-1.1662245988845825,-0.055572569370269775,7.746878623962402,-0.4328794777393341,-9.435834884643555,2.662984848022461,-1.8497258424758911,-4.699570178985596,4.958013534545898
1740558412.6218839,-1.0935231447219849,-0.05313275009393692,7.781259536743164,-0.5029654502868652,-9.772180557250977,1.6404001712799072,18.147531509399414,-7.104098320007324,5.585849761962891
1740558412.7966378,-1.0256328582763672,-0.049903787672519684,7.810678005218506,-0.27481886744499207,-8.300149917602539,1.823549747467041,8.56588363647461,-3.920884132385254,5.850419521331787
1740558412.9704087,-0.9605416655540466,-0.049687404185533524,7.850945472717285,0.06643590331077576,-9.002167701721191,0.9650174379348755,5.271932601928711,-7.558204650878906,1.6764237880706787
1740558413.147834,-0.9017783999443054,-0.04663708806037903,7.8832502365112305,-0.2788068950176239,-9.328974723815918,3.078596830368042,-3.594661235809326,-5.610574245452881,1.6617788076400757
1740558413.3144438,-0.8356305360794067,-0.04555445536971092,7.922028541564941,0.10034880042076111,-9.938305854797363,2.3703129291534424,-5.112849235534668,-5.88091516494751,0.047225818037986755
1740558413.4878938,-0.7771015167236328,-0.04338965564966202,7.9560546875,0.2814337909221649,-9.57291316986084,2.142066478729248,-4.470394134521484,-5.1625471115112305,-0.25137433409690857
1740558413.6602368,-0.7160140872001648,-0.040929947048425674,7.993865013122559,-0.2949845790863037,-9.52356243133545,2.707773447036743,-2.1350555419921875,-3.7862162590026855,-0.6131889820098877
1740558413.8326108,-0.650060772895813,-0.038827214390039444,8.030319213867188,-0.38303372263908386,-9.240530967712402,2.7315492630004883,1.972523808479309,-5.282219886779785,2.2411861419677734
1740558413.9996307,-0.5892423391342163,-0.037734705954790115,8.067925453186035,0.15275028347969055,-9.576054573059082,2.3107197284698486,-0.7576950788497925,-4.402400016784668,-0.4119926393032074
1740558414.1770039,-0.5275462865829468,-0.0358009934425354,8.107874870300293,-0.37765035033226013,-9.606213569641113,2.2224419116973877,-3.348627805709839,-4.959746837615967,1.6941945552825928
1740558414.3611455,-0.46224939823150635,-0.03373229503631592,8.148506164550781,0.6037671566009521,-8.781745910644531,1.1931097507476807,7.84944486618042,-0.036741942167282104,0.7463423013687134
1740558414.5347757,-0.3917067050933838,-0.03216360881924629,8.187952995300293,0.7800960540771484,-5.680277347564697,0.9673179388046265,-5.958955764770508,2.5054471492767334,1.4140506982803345
1740558414.698677,-0.3245551586151123,-0.030362261459231377,8.215075492858887,-0.1110108271241188,-8.78823471069336,2.0655994415283203,4.994089603424072,7.546706199645996,0.8575546741485596
1740558414.853533,-0.25173065066337585,-0.027952037751674652,8.240696907043457,-0.8832367658615112,-9.077523231506348,1.3476516008377075,3.215689182281494,5.56648063659668,-0.4351669251918793
1740558415.0345304,-0.1837177574634552,-0.024788744747638702,8.264891624450684,-0.22060342133045197,-8.38644790649414,2.2061069011688232,12.752886772155762,6.277525424957275,0.8501882553100586
1740558415.1963322,-0.10050961375236511,-0.022047538310289383,8.296419143676758,-0.23348398506641388,-9.421452522277832,2.9617106914520264,-2.041516065597534,2.8412234783172607,-3.4871766567230225
1740558415.3608818,-0.027853569015860558,-0.020117629319429398,8.324975967407227,-0.4121216833591461,-9.986786842346191,3.1473920345306396,-1.7622311115264893,3.0436336994171143,-1.5382026433944702
1740558415.5197995,0.046048931777477264,-0.018052253872156143,8.35181713104248,-0.23477306962013245,-10.248422622680664,2.093745470046997,2.57326078414917,0.6963116526603699,-0.7281970977783203
1740558415.7577653,0.1107102781534195,-0.017753487452864647,8.376914024353027,-0.7798295617103577,-10.491230964660645,2.3341104984283447,6.22420597076416,0.7057434320449829,3.635162353515625
1740558415.9736512,0.2235732227563858,-0.016586942598223686,8.419820785522461,-0.6462114453315735,-9.966257095336914,2.0106072425842285,2.580852508544922,-0.3667904734611511,0.3456186056137085
1740558416.172612,0.30876702070236206,-0.013901285827159882,8.452465057373047,-0.17227646708488464,-9.773367881774902,1.5995194911956787,1.3622162342071533,2.8772799968719482,-5.959155082702637
1740558416.3589456,0.38801702857017517,-0.010112417861819267,8.48362922668457,0.29563918709754944,-7.510702133178711,2.1652262210845947,2.6870782375335693,2.8399128913879395,-1.077148675918579
1740558416.5630362,0.47083666920661926,-0.007837402634322643,8.516833305358887,-0.560335099697113,-9.937017440795898,1.8203250169754028,-3.5053553581237793,3.2630321979522705,0.7486221194267273
1740558416.755613,0.5722141265869141,-0.0011529570911079645,8.55224323272705,0.1386563628911972,-8.027925491333008,2.1462056636810303,3.0962908267974854,3.4702494144439697,-2.064931631088257
1740558416.9534078,0.6552320122718811,0.002309363568201661,8.57817268371582,-0.12192387878894806,-10.617927551269531,1.2832260131835938,0.35792577266693115,6.39789342880249,2.3390588760375977
1740558417.1283402,0.7446817755699158,0.006057293154299259,8.600080490112305,0.5902165770530701,-8.462859153747559,2.481365203857422,-1.5444802045822144,7.743255138397217,-3.643228054046631
1740558417.30091,0.8222349882125854,0.008964159525930882,8.61023998260498,-0.8908661007881165,-10.878496170043945,1.7060478925704956,-0.34963929653167725,11.5824613571167,-2.5483107566833496
1740558417.4757607,0.8968420624732971,0.013454154133796692,8.6109037399292,-0.12302318215370178,-9.064669609069824,2.1510376930236816,6.073053359985352,11.47159481048584,-0.805176317691803
1740558417.6686034,0.9611449837684631,0.01589364930987358,8.609841346740723,-0.39782729744911194,-9.208024978637695,3.130748987197876,-1.368284821510315,12.918723106384277,0.49124380946159363
1740558417.8552308,1.0292837619781494,0.0206161942332983,8.605186462402344,-0.2747947573661804,-10.496881484985352,3.6367087364196777,-4.436242580413818,10.031630516052246,-4.399344444274902
1740558418.0302696,1.092330813407898,0.022769102826714516,8.599291801452637,-0.02260194718837738,-9.786372184753418,3.6129331588745117,-9.166290283203125,12.250530242919922,-5.088569641113281
1740558418.2090595,1.1521730422973633,0.02268395386636257,8.584872245788574,-0.3324049413204193,-10.072711944580078,2.181946039199829,1.598525047302246,12.838948249816895,-3.298964738845825
1740558418.3854637,1.2036296129226685,0.01946919597685337,8.565969467163086,-0.5649651288986206,-9.920154571533203,1.7156351804733276,5.974044322967529,14.0734281539917,-0.7011555433273315
1740558418.5554576,1.2621475458145142,0.018555795773863792,8.541778564453125,0.7731711268424988,-8.943594932556152,2.6476409435272217,-7.446339130401611,14.366570472717285,-8.74232292175293
1740558418.723257,1.3138666152954102,0.01412756834179163,8.513072967529297,0.8647235035896301,-8.61760139465332,1.724914312362671,-0.8460494875907898,21.924701690673828,-1.2625082731246948
1740558418.9069793,1.362878680229187,0.00020881113596260548,8.47824478149414,1.113173484802246,-9.01179027557373,2.7854628562927246,-4.340512752532959,17.72097396850586,-11.555474281311035
1740558419.0828414,1.4264912605285645,-0.0027257774490863085,8.41592025756836,-0.20010851323604584,-9.587864875793457,2.882789134979248,4.007591247558594,20.798261642456055,-4.945740699768066
1740558419.2711217,1.5041618347167969,-0.01466395054012537,8.367480278015137,0.5462133884429932,-9.427871704101562,1.5107793807983398,5.726484775543213,23.057294845581055,-10.877567291259766
1740558419.4540842,1.577369213104248,-0.027491208165884018,8.312348365783691,-0.8497257828712463,-10.69045352935791,3.020610809326172,-13.390740394592285,24.872802734375,-7.584046840667725
1740558419.6479487,1.632218360900879,-0.017789414152503014,8.261637687683105,0.16663427650928497,-9.347908973693848,2.576160192489624,-3.623199701309204,22.249481201171875,-7.846376419067383
1740558419.8360121,1.7088621854782104,-0.04469954967498779,8.204322814941406,-0.0023647919297218323,-9.00334644317627,2.657074451446533,-1.426784634590149,26.006916046142578,-7.415474891662598
1740558420.0133834,1.7686299085617065,-0.055620886385440826,8.146524429321289,-0.1594982147216797,-8.828877449035645,0.8713681101799011,9.879498481750488,23.831941604614258,-5.162871837615967
1740558420.2252123,1.8077939748764038,-0.05643748864531517,8.088156700134277,0.0047904071398079395,-10.572514533996582,2.623403549194336,-6.739027500152588,19.298494338989258,-8.869105339050293
1740558420.4052944,1.846338152885437,-0.056848496198654175,8.01864242553711,-0.24937039613723755,-9.705967903137207,2.318997859954834,8.335125923156738,19.45272445678711,-5.209855556488037
1740558420.5793035,1.8741743564605713,-0.05696791037917137,7.959663391113281,0.1890537291765213,-8.25795841217041,1.7602697610855103,-1.2344706058502197,16.972843170166016,-2.6663806438446045
1740558420.8243675,1.8986036777496338,-0.06125775724649429,7.902251720428467,0.5259078145027161,-9.369091033935547,0.650331437587738,12.86040210723877,13.941512107849121,-7.355660438537598
1740558420.999896,1.9203994274139404,-0.06404420733451843,7.831844806671143,0.046211715787649155,-8.4133882522583,1.8458621501922607,6.093774318695068,16.434341430664062,-1.4388577938079834
1740558421.170189,1.9354298114776611,-0.06109211966395378,7.773761749267578,0.26458069682121277,-8.513448715209961,2.2358601093292236,-2.227293014526367,16.07613182067871,-3.386796236038208
1740558421.341664,1.9455833435058594,-0.05861594155430794,7.720106601715088,-0.6016621589660645,-9.981316566467285,2.4853503704071045,-5.8382391929626465,17.110456466674805,-2.887329578399658
1740558421.50775,1.9525700807571411,-0.056357499212026596,7.659056186676025,-0.2135406881570816,-10.305713653564453,2.207329273223877,6.806832313537598,18.548662185668945,-8.926633834838867
1740558421.7323318,1.9562522172927856,-0.05530058965086937,7.606551170349121,-0.011438051238656044,-9.028860092163086,2.3002853393554688,7.47499418258667,18.08269500732422,-4.793857097625732
1740558421.9132798,1.9571125507354736,-0.054148588329553604,7.522270202636719,0.19822122156620026,-8.50373649597168,2.0312352180480957,-7.56210994720459,20.036893844604492,-5.0839385986328125
1740558422.1165144,1.9557422399520874,-0.05249114707112312,7.454248428344727,0.4411427974700928,-8.728738784790039,1.8221635818481445,3.7328524589538574,16.61276626586914,-5.2365922927856445
1740558422.3041794,1.9499332904815674,-0.052011772990226746,7.377522945404053,-0.007097607012838125,-8.204205513000488,0.7403709888458252,17.334285736083984,20.7187557220459,-3.859487295150757
1740558422.5017183,1.9379451274871826,-0.05175944045186043,7.30656623840332,-0.2974955141544342,-9.461682319641113,2.739596366882324,-10.833006858825684,21.356077194213867,-5.094051361083984
1740558422.7010193,1.9184752702713013,-0.05201370269060135,7.2267937660217285,-0.12301024049520493,-9.407458305358887,2.1027164459228516,1.7500864267349243,19.46395492553711,-6.023305892944336
1740558422.8999941,1.8933006525039673,-0.05259755253791809,7.149872779846191,-0.10679253190755844,-9.184205055236816,2.4305124282836914,-2.5125088691711426,17.71811294555664,-3.5269720554351807
1740558423.0858355,1.8650691509246826,-0.05387731269001961,7.077101707458496,0.23356902599334717,-8.582734107971191,2.2999773025512695,0.44872722029685974,17.0811824798584,-7.230100154876709
1740558423.258092,1.8376129865646362,-0.05460498854517937,7.013559341430664,-0.2209402471780777,-10.153708457946777,2.399604082107544,-2.820719003677368,13.623421669006348,-3.4573745727539062
1740558423.4313948,1.7438690662384033,-0.040154971182346344,7.044927597045898,0.18931704759597778,-8.960016250610352,1.5485897064208984,-0.2038821578025818,14.968761444091797,-7.118717670440674
1740558423.6209714,1.7139127254486084,-0.03972368314862251,6.9880547523498535,0.020174698904156685,-9.07763957977295,1.7387946844100952,4.981240272521973,11.386974334716797,-2.7803754806518555
1740558423.7850995,1.6890864372253418,-0.03942417725920677,6.931458473205566,-0.15751254558563232,-10.388128280639648,3.0368688106536865,-2.1245787143707275,11.163872718811035,-5.512020111083984
1740558423.9560285,1.6637835502624512,-0.0395033173263073,6.876999378204346,-0.5885874032974243,-11.464241027832031,3.4049293994903564,-8.27983283996582,10.110374450683594,2.0028293132781982
1740558424.1608915,1.6379421949386597,-0.03981717303395271,6.821562767028809,-0.04399343952536583,-9.061030387878418,1.6670057773590088,0.5873596668243408,7.4559431076049805,-5.902138710021973
1740558424.3506024,1.6066147089004517,-0.040196727961301804,6.747781276702881,0.2357155978679657,-9.040279388427734,2.4757628440856934,5.095220565795898,4.850054740905762,-6.983112335205078
1740558424.5256932,1.5819542407989502,-0.0405709408223629,6.6815290451049805,-0.3725229799747467,-8.7172269821167,1.8620431423187256,11.264111518859863,4.601846218109131,3.0059423446655273
1740558424.7022107,1.5608539581298828,-0.04078390449285507,6.618316173553467,-1.077416181564331,-13.091753005981445,4.332488059997559,-9.761134147644043,-1.967848777770996,-3.7819440364837646
1740558424.8912933,1.5412156581878662,-0.040901608765125275,6.546060085296631,-0.6546981930732727,-9.632530212402344,3.0344910621643066,-4.860831260681152,3.8301429748535156,-1.3420209884643555
1740558425.0619073,1.521001935005188,-0.041673336178064346,6.473381519317627,-0.06373666971921921,-8.314496040344238,2.232943296432495,-0.4344410002231598,-2.1131110191345215,6.644946575164795
1740558425.2702098,1.5054280757904053,-0.041849758476018906,6.397414207458496,1.2128254175186157,-8.848468780517578,1.0606493949890137,4.466194152832031,-2.57953143119812,-5.3107099533081055
1740558425.4858196,1.489992618560791,-0.041866544634103775,6.313408374786377,-0.1649160087108612,-8.65362548828125,1.3580760955810547,4.217310905456543,0.5156771540641785,2.5025575160980225
1740558425.7275155,1.469637155532837,-0.04164120554924011,6.218433380126953,-0.23962284624576569,-8.438661575317383,2.1092331409454346,13.688379287719727,2.268876791000366,4.993008613586426
1740558425.9299374,1.4435746669769287,-0.041546665132045746,6.106575965881348,-0.410872220993042,-8.17721176147461,2.073338270187378,-4.618920803070068,2.7398016452789307,2.6391382217407227
1740558426.1222713,1.4166334867477417,-0.0409211739897728,6.013952255249023,-0.6210911870002747,-9.924766540527344,2.765209913253784,-1.289591908454895,0.2593776285648346,-2.9642019271850586
1740558426.3588765,1.3972350358963013,-0.04085247963666916,5.929020881652832,0.05828390270471573,-10.339465141296387,1.6788935661315918,2.2794036865234375,-4.245551109313965,-0.09354191273450851
1740558426.6991405,1.374565839767456,-0.0418020561337471,5.8146820068359375,-0.38564273715019226,-8.35241985321045,2.810307025909424,3.9440407752990723,-2.7970736026763916,5.1547465324401855
1740558426.9994402,1.3548561334609985,-0.04207218810915947,5.663734436035156,-0.23327311873435974,-8.95180892944336,2.7152042388916016,-3.0657413005828857,-3.2620339393615723,1.7917827367782593
1740558427.31955,1.3424255847930908,-0.04254963994026184,5.529774188995361,-0.24707834422588348,-9.23448657989502,2.3418493270874023,-0.6160926818847656,-5.505765438079834,4.22898530960083
1740558427.6015875,1.3316208124160767,-0.04318555071949959,5.389283180236816,0.3698595464229584,-9.15737247467041,1.714326024055481,2.123361349105835,-8.791794776916504,1.9520206451416016
1740558427.9026597,1.3246142864227295,-0.044326476752758026,5.264196395874023,-0.09257638454437256,-7.555380821228027,2.4489939212799072,-0.8780501484870911,-2.2434122562408447,3.4076638221740723
1740558428.2223773,1.3201855421066284,-0.04518316686153412,5.129942893981934,0.19473659992218018,-8.081520080566406,2.8698229789733887,2.395102024078369,-3.8794851303100586,0.5375771522521973
1740558428.5383024,1.3195699453353882,-0.045538973063230515,4.988525390625,-0.4469655454158783,-9.404317855834961,2.3894007205963135,-13.541013717651367,-2.4488563537597656,-0.4713083505630493
1740558428.8084946,1.3193708658218384,-0.045749232172966,4.827730178833008,-0.8330227136611938,-10.098250389099121,1.0339570045471191,22.579256057739258,-7.091913223266602,4.968421936035156
1740558429.070954,1.3209514617919922,-0.04595322161912918,4.711619853973389,-1.6011474132537842,-9.973183631896973,2.719882011413574,-1.647216796875,-2.556879997253418,6.94719934463501
1740558429.340952,1.3246842622756958,-0.0467471145093441,4.596374988555908,-0.703763484954834,-10.309900283813477,2.304039239883423,-8.731918334960938,-4.058198928833008,1.6001248359680176
1740558429.62302,1.3360675573349,-0.0468844398856163,4.465480327606201,-0.4992138743400574,-9.873469352722168,2.320451021194458,-3.220059871673584,-1.5595190525054932,-1.5868839025497437
1740558429.8939915,1.3498936891555786,-0.04652886092662811,4.335931301116943,-0.2092294692993164,-8.513182640075684,2.5179436206817627,0.1629980504512787,-4.692298412322998,0.24227876961231232
1740558430.1920013,1.3650521039962769,-0.04603063687682152,4.215085983276367,-0.7255577445030212,-10.02712345123291,2.576843500137329,17.90506362915039,-2.5766279697418213,11.187474250793457
1740558430.5432425,1.3828480243682861,-0.04550090804696083,4.0708770751953125,-0.03322063758969307,-9.219856262207031,2.529599666595459,-4.216588973999023,-2.2647438049316406,0.5722116827964783
1740558430.840417,1.4047905206680298,-0.04509015008807182,3.9185681343078613,0.39659881591796875,-9.529123306274414,3.106886863708496,-4.250407695770264,-2.021151065826416,-6.3528218269348145
1740558431.1443923,1.4280459880828857,-0.04418503865599632,3.779676914215088,-0.5144023895263672,-9.308157920837402,3.0238256454467773,-0.18848669528961182,-1.1143720149993896,1.971575379371643
1740558431.3621683,1.4544779062271118,-0.04202570393681526,3.6428258419036865,-0.538524329662323,-9.220641136169434,3.2829034328460693,-10.399527549743652,-1.6606848239898682,-0.7195062041282654
1740558431.5458317,1.4727128744125366,-0.040200844407081604,3.5424554347991943,-0.8181972503662109,-9.986745834350586,2.4723074436187744,-9.113834381103516,-0.9834137558937073,0.5383394360542297
1740558431.76185,1.489733099937439,-0.039114776998758316,3.455125570297241,0.10271145403385162,-10.919089317321777,2.2535712718963623,-11.997528076171875,-5.273234844207764,-3.1609418392181396
1740558431.9662473,1.507826328277588,-0.037432316690683365,3.3495230674743652,-0.06901587545871735,-9.801097869873047,2.5835912227630615,3.823537826538086,-0.5903623104095459,-3.138925552368164
1740558432.2244108,1.5256417989730835,-0.037097882479429245,3.2412147521972656,-0.24246551096439362,-10.534795761108398,2.4219934940338135,-14.427929878234863,-2.433706045150757,0.5816593170166016
1740558432.498774,1.5419057607650757,-0.03649211302399635,3.1131811141967773,-0.10175761580467224,-10.002785682678223,2.1583917140960693,3.6995527744293213,1.8521589040756226,1.4021236896514893
1740558432.693134,1.5575851202011108,-0.03596619889140129,2.9758851528167725,-0.2658582031726837,-8.814973831176758,2.1129870414733887,-3.3401973247528076,4.200178146362305,2.491769790649414
1740558432.9136279,1.5700953006744385,-0.03566940873861313,2.8735294342041016,0.656090497970581,-8.51827335357666,2.9474356174468994,5.06346321105957,-0.6429916620254517,-3.593865394592285
1740558433.1273224,1.5791996717453003,-0.03203091025352478,2.764218807220459,0.047859661281108856,-9.8526611328125,2.358107328414917,-0.6663904190063477,-0.1778838187456131,-2.5792319774627686
1740558433.3394012,1.590196132659912,-0.031506557017564774,2.6492483615875244,0.05656936764717102,-8.448923110961914,2.9904627799987793,-3.036994457244873,2.766432762145996,-3.603804111480713
1740558433.5268154,1.5983563661575317,-0.029409134760499,2.5588455200195312,-0.20159794390201569,-9.16238021850586,2.0892114639282227,-0.5740697383880615,-1.2051092386245728,1.40289306640625
1740558433.7267418,1.6082136631011963,-0.027441440150141716,2.464615821838379,-0.39021676778793335,-9.191319465637207,0.7530190944671631,10.471614837646484,3.5403261184692383,2.9134137630462646
1740558433.933061,1.6136448383331299,-0.02715192176401615,2.3760061264038086,-0.4126344919204712,-9.554915428161621,1.5446717739105225,1.0130826234817505,1.7432329654693604,1.801939845085144
1740558434.137645,1.6175739765167236,-0.02485201135277748,2.2933003902435303,-0.6410340666770935,-9.430855751037598,3.4468014240264893,-11.001171112060547,2.0246598720550537,-0.5777869820594788
1740558434.4545188,1.6230504512786865,-0.023832052946090698,2.2155356407165527,-0.961294949054718,-10.085376739501953,2.7405872344970703,-2.6496686935424805,-1.3355119228363037,1.1105629205703735
1740558434.806926,1.6339210271835327,-0.022922784090042114,2.0944550037384033,0.16761237382888794,-8.134062767028809,1.7088006734848022,1.961493968963623,0.2786984145641327,-0.4583515226840973
1740558435.1631749,1.6438069343566895,-0.022730618715286255,1.9732252359390259,0.5208975076675415,-9.594452857971191,2.6361281871795654,-4.734038829803467,-0.2987958490848541,-4.962550640106201
1740558435.4658844,1.6517760753631592,-0.02245449274778366,1.8521190881729126,-0.07131948322057724,-9.841471672058105,2.5241518020629883,0.8298445343971252,0.6213440895080566,-1.2616660594940186
1740558435.7333968,1.6582365036010742,-0.021636370569467545,1.7341874837875366,-0.044151730835437775,-9.454048156738281,1.734799861907959,-0.8923956155776978,1.65799880027771,-0.05001499503850937
1740558435.9798005,1.6634960174560547,-0.021407432854175568,1.6345893144607544,-0.5403030514717102,-9.682674407958984,0.9120850563049316,10.466191291809082,1.9851940870285034,-0.2431480884552002
1740558436.3460503,1.6676058769226074,-0.021741261705756187,1.5316319465637207,-0.4938899278640747,-8.90324878692627,1.8200840950012207,5.618182182312012,2.0670671463012695,2.205171585083008
1740558436.808655,1.6712853908538818,-0.02193477749824524,1.3799569606781006,0.0376819372177124,-11.127671241760254,2.8617663383483887,-7.825114727020264,-3.017909288406372,-0.46701377630233765
1740558437.1483376,1.6756093502044678,-0.022932590916752815,1.22547447681427,-0.6183521747589111,-10.257452011108398,2.431349754333496,-1.2524607181549072,0.2803002595901489,1.2934404611587524
1740558437.4188657,1.6776065826416016,-0.024538271129131317,1.1305192708969116,-0.18562465906143188,-9.908675193786621,2.6023037433624268,-6.672453880310059,0.2479894459247589,-1.26397705078125
