timestamp,acceleration_x,acceleration_y,acceleration_z,angular_velocity_x,angular_velocity_y,angular_velocity_z
1740479925.3561232,-0.8877741694450378,-9.513957023620605,1.9579815864562988,-0.1420932412147522,-0.10291831940412521,-0.13404029607772827
1740479925.6910603,-0.814068078994751,-9.544777870178223,2.0082952976226807,-0.024406656622886658,-0.13377578556537628,0.10524864494800568
1740479925.8673928,-0.7973690629005432,-9.532751083374023,1.9750866889953613,0.03701116889715195,-0.009155722334980965,0.10567069053649902
1740479926.034436,-0.8187885880470276,-9.523292541503906,1.9749326705932617,0.039696067571640015,0.022980252280831337,-0.10407821834087372
1740479926.2109418,-0.8306403756141663,-9.520904541015625,1.948933482170105,0.12773460149765015,-0.00851990096271038,0.07533078640699387
1740479926.406817,-0.7997815012931824,-9.530411720275879,1.993952989578247,0.15804192423820496,-0.008826578967273235,0.04520820081233978
1740479926.5545466,-0.8068966269493103,-9.53042221069336,1.984596848487854,0.00818504299968481,0.023230208083987236,0.015458378940820694
1740479926.706485,-0.842613160610199,-9.554405212402344,2.0107500553131104,-0.14146268367767334,0.023509684950113297,-0.04544996842741966
1740479926.8595006,-0.8497210144996643,-9.516292572021484,1.9918065071105957,0.03959624841809273,0.11785763502120972,-0.047156527638435364
1740479926.9967737,-0.8140238523483276,-9.504255294799805,1.9847508668899536,0.06688237935304642,0.05523282662034035,0.10070871561765671
1740479927.1366723,-0.7925626039505005,-9.532678604125977,1.9443323612213135,0.2481645941734314,-0.06677574664354324,-0.05103420093655586
1740479927.4449205,-0.8354596495628357,-9.53293228149414,2.001316785812378,0.0065676746889948845,-0.006892034318298101,0.04018184170126915
1740479927.5901558,-0.8282825946807861,-9.54236125946045,1.965576410293579,0.12694799900054932,-0.006737554911524057,0.03969817981123924
1740479927.7270212,-0.8378071188926697,-9.535264015197754,1.972709059715271,0.06449039280414581,-0.008549822494387627,0.21984216570854187
1740479927.86829,-0.8520892262458801,-9.506768226623535,1.9871283769607544,0.007574442308396101,0.0557260736823082,0.010531717911362648
1740479928.0317833,-0.8402329087257385,-9.523427963256836,2.00591778755188,0.09720771014690399,-0.037694014608860016,-0.020324481651186943
1740479928.1689756,-0.8163933157920837,-9.542366981506348,1.9849048852920532,0.03658606484532356,-0.005989075638353825,0.07007729262113571
1740479928.310053,-0.8402037024497986,-9.532936096191406,1.9942610263824463,0.03776048123836517,0.02491813153028488,-0.020939473062753677
1740479928.462694,-0.8211640119552612,-9.542366027832031,1.9798418283462524,-0.022672737017273903,0.024650687351822853,-0.021466484293341637
1740479928.5988488,-0.8045086860656738,-9.52325439453125,1.977464199066162,-0.11130766570568085,0.1494569033384323,-0.05111248046159744
1740479928.7342603,-0.8116953372955322,-9.542397499084473,2.0130505561828613,0.03638904541730881,-0.005784743465483189,0.03648927062749863
1740479928.8969555,-0.821192741394043,-9.52573299407959,1.9987852573394775,0.09374623000621796,-0.008200055919587612,0.24524830281734467
1740479929.034469,-0.8022094964981079,-9.551957130432129,2.0441129207611084,-0.11294543743133545,0.11524530500173569,0.03719126805663109
1740479929.1808658,-0.8117490410804749,-9.499638557434082,2.063133716583252,-0.020703040063381195,0.17394691705703735,-0.08163872361183167
1740479929.358503,-0.8022653460502625,-9.513934135437012,2.0844547748565674,0.10120532661676407,0.4676828682422638,-0.1365293264389038
1740479929.5674734,-0.7974787354469299,-9.513882637023926,2.0655112266540527,0.0712042823433876,0.7043941020965576,-0.07520399987697601
1740479929.744991,-0.8164182305335999,-9.551894187927246,1.9893519878387451,0.37293416261672974,0.7365657687187195,-0.10622066259384155
1740479929.9337344,-0.8329349160194397,-9.477917671203613,1.882361650466919,0.14016219973564148,1.203516960144043,-0.43266814947128296
1740479930.1427124,-0.8118743300437927,-9.54268741607666,2.1581592559814453,-0.5588029623031616,0.9497272372245789,-0.10141219198703766
1740479930.3386433,-0.9236074090003967,-9.552448272705078,2.09143328666687,-0.8309592604637146,0.885636568069458,-0.07070568203926086
1740479930.543857,-0.8520877957344055,-9.544857025146484,1.9822962284088135,-0.28747767210006714,1.0129514932632446,-0.07215946912765503
1740479930.7486546,-0.8520814180374146,-9.552009582519531,1.9848278760910034,0.1279546171426773,0.45624762773513794,0.043218374252319336
1740479930.9460196,-0.8187808394432068,-9.568535804748535,1.9726320505142212,-0.11588392406702042,0.08231160044670105,-0.01778966747224331
1740479931.1365845,-0.8235591053962708,-9.523358345031738,1.9965616464614868,-0.11496243625879288,0.08352439105510712,-0.07773908227682114
1740479931.326475,-0.816463828086853,-9.544801712036133,2.017728567123413,-0.05675274133682251,0.050689127296209335,0.0417703352868557
1740479931.519805,-0.7974168062210083,-9.54475212097168,2.020414352416992,0.03468355908989906,0.17621232569217682,0.0720878392457962
1740479931.6994245,-0.8211036920547485,-9.542271614074707,1.9322905540466309,-0.025343189015984535,0.05228740721940994,-0.04828207567334175
1740479931.9057508,-0.7831610441207886,-9.5375394821167,2.0152740478515625,0.15329961478710175,0.050100650638341904,0.009769097901880741
1740479932.0895383,-0.7974348664283752,-9.530492782592773,2.034679651260376,-0.055599749088287354,0.1714591681957245,0.011289669200778008
1740479932.267115,-0.8046137094497681,-9.528133392333984,2.0412731170654297,-0.05330260843038559,0.38162657618522644,-0.13689467310905457
1740479932.510944,-0.8046003580093384,-9.532933235168457,2.0536231994628906,0.03606163337826729,0.37025687098503113,-0.07462956756353378
1740479932.7548375,-0.871212363243103,-9.521254539489746,2.0560007095336914,0.031339988112449646,0.16665299236774445,-0.07373261451721191
1740479932.9331698,-0.840289294719696,-9.540157318115234,2.038972854614258,-0.1139405220746994,0.5248041749000549,-0.30654335021972656
1740479933.1181173,-0.8189623355865479,-9.502105712890625,2.100712537765503,0.06020890548825264,0.6909878849983215,-0.003201758023351431
1740479933.3184347,-0.8021633625030518,-9.456603050231934,1.9963306188583374,-0.15096965432167053,0.59465491771698,-0.0019685218576341867
1740479933.5074778,-0.7333625555038452,-9.551899909973145,2.136453151702881,-0.24444745481014252,0.46826186776161194,0.147640660405159
1740479933.6874473,-0.8520594835281372,-9.537591934204102,1.929373860359192,0.1459139734506607,0.2833358943462372,0.08512842655181885
1740479933.872452,-0.8687736392021179,-9.492557525634766,2.0011627674102783,-0.1247786357998848,0.22253431379795074,0.05594431981444359
1740479934.0916734,-0.9352867007255554,-9.509278297424316,1.9177939891815186,-0.13935165107250214,-1.3289754390716553,0.10777904093265533
1740479934.2700927,-0.906826913356781,-9.509272575378418,1.967337727546692,-0.18489514291286469,-2.111706495285034,0.7634504437446594
1740479934.4674873,-0.7689759135246277,-9.618623733520508,2.0963425636291504,-0.13580185174942017,-0.3703976571559906,0.5326226949691772
1740479934.6391199,-0.7024925351142883,-9.616188049316406,2.1840813159942627,-0.2516612708568573,2.0560333728790283,-0.5635824203491211
1740479934.824825,-0.785578191280365,-9.609018325805664,2.0340635776519775,0.3789009153842926,1.8715879917144775,-0.5670733451843262
1740479935.0136566,-0.9376242756843567,-9.49727725982666,1.8699345588684082,0.7153223752975464,0.006400247570127249,0.11140148341655731
1740479935.218192,-0.8522384166717529,-9.575982093811035,2.0744824409484863,-0.4152640998363495,-1.6425011157989502,0.2571154236793518
1740479935.5542502,-0.7619149684906006,-9.42819595336914,2.1484949588775635,-0.532039999961853,-1.6392747163772583,-0.012232108972966671
1740479935.9110773,-0.8117468953132629,-9.525790214538574,2.04618239402771,0.055903397500514984,0.4075874984264374,0.17612573504447937
1740479936.216225,-0.8545446395874023,-9.56398868560791,2.024707555770874,-0.08374848961830139,-1.3014496564865112,0.49749326705932617
1740479936.5127227,-0.7973341941833496,-9.389762878417969,1.924695611000061,0.42942363023757935,-4.524766445159912,0.5084472894668579
1740479936.8080928,-0.8256626725196838,-9.527620315551758,1.7486786842346191,0.706253170967102,-6.358937740325928,1.157336711883545
1740479937.120074,-0.8711000680923462,-9.523428916931152,1.9559119939804077,-0.2709725499153137,-4.562734127044678,1.1407235860824585
1740479937.4281707,-0.98496413230896,-9.516114234924316,1.6821069717407227,0.5377443432807922,-2.724830389022827,0.33758801221847534
1740479937.7151935,-0.7855662107467651,-9.50898551940918,2.0245532989501953,-0.3206588625907898,-0.992042064666748,0.38010627031326294
1740479938.0702364,-0.8212138414382935,-9.52807903289795,1.9887359142303467,-0.11264876276254654,-1.3326630592346191,0.3474876582622528
1740479938.3520706,-0.7640739679336548,-9.546856880187988,1.9482402801513672,-0.01197299174964428,-0.4008937478065491,0.172084242105484
1740479938.6735532,-0.84270179271698,-9.525911331176758,2.0578391551971436,-0.011136768385767937,-0.4610863924026489,0.08183549344539642
1740479938.955795,-0.8593239188194275,-9.51163101196289,2.0340635776519775,-0.3895339071750641,-2.015228271484375,0.3450029492378235
1740479939.2429478,-0.8069895505905151,-9.561408996582031,2.0122034549713135,-0.30258873105049133,-2.049757480621338,0.5543180704116821
1740479939.5278945,-0.7640635967254639,-9.563501358032227,1.936275601387024,-0.2897725999355316,-1.1157631874084473,0.19939236342906952
1740479939.820888,-0.7332929968833923,-9.511261940002441,2.062363386154175,0.08746606111526489,0.12970657646656036,-0.18532629311084747
1740479940.1816783,-0.8356791138648987,-9.516493797302246,2.128781318664551,0.08786096423864365,2.8620970249176025,-0.710666835308075
1740479940.5872223,-0.7998649477958679,-9.585216522216797,2.0217134952545166,-0.31137439608573914,-0.4633731544017792,-0.03697669878602028
1740479940.8603969,-0.8973543047904968,-9.542608261108398,1.9860502481460571,-0.4614761471748352,-0.6177269816398621,-0.18711839616298676
1740479941.1634786,-0.6763341426849365,-9.577930450439453,2.1572349071502686,-0.136691614985466,-0.4360417425632477,0.47221148014068604
1740479941.3833973,-0.7738252878189087,-9.521026611328125,2.119117021560669,-0.2856372892856598,-0.8671917915344238,0.020754236727952957
1740479941.6014934,-0.8806025981903076,-9.542396545410156,1.907590627670288,0.4325791299343109,-1.0212143659591675,0.28696995973587036
1740479941.7966602,-0.783210039138794,-9.585137367248535,2.012049436569214,-0.2852005958557129,-0.6822832822799683,0.11167173832654953
1740479941.9968655,-0.8426380753517151,-9.609108924865723,1.9885048866271973,-0.950403094291687,-0.5935841202735901,0.41463932394981384
1740479942.175961,-0.7711332440376282,-9.389556884765625,1.8718501329421997,0.5939769744873047,-0.2429228276014328,-0.03940438851714134
1740479942.3654325,-0.8379607200622559,-9.54727554321289,2.0405802726745605,0.22656743228435516,-0.37217867374420166,0.3511568307876587
1740479942.554065,-0.7546530365943909,-9.465951919555664,2.000084638595581,-0.09955386817455292,-0.2777598798274994,-0.006877086590975523
1740479942.7893217,-0.6975341439247131,-9.463332176208496,1.9762318134307861,0.39290350675582886,0.22441712021827698,-0.5159223675727844
1740479942.9635718,-0.7689324021339417,-9.506491661071777,2.0048398971557617,0.33632928133010864,1.089815616607666,-0.18130174279212952
1740479943.1530714,-0.7333664298057556,-9.513700485229492,2.097564935684204,0.0720958486199379,1.8638373613357544,-0.1761782169342041
1740479943.3398612,-0.7760570049285889,-9.642229080200195,1.99532949924469,-0.39797914028167725,0.4932733476161957,0.3281945288181305
1740479943.52784,-0.8542442917823792,-9.453874588012695,1.7456849813461304,0.6036633849143982,0.6261132955551147,-0.2147868275642395
1740479943.704032,-0.8521119952201843,-9.561429977416992,1.9479321241378784,0.32927587628364563,0.5615844130516052,0.025850465521216393
1740479943.8987646,-0.9187394380569458,-9.54737377166748,1.9549109935760498,0.05041247978806496,0.15382517874240875,0.35461685061454773
1740479944.0901437,-0.8236108422279358,-9.551861763000488,1.976309061050415,0.20275545120239258,0.18649819493293762,0.23424875736236572
1740479944.2708359,-0.9210503697395325,-9.556809425354004,1.9050592184066772,-0.06359322369098663,0.2505932152271271,-0.09418029338121414
1740479944.471477,-0.8259239196777344,-9.537459373474121,1.9167158603668213,-0.007197324652224779,-0.030029043555259705,-0.005953724030405283
1740479944.7101436,-0.8473395109176636,-9.54232120513916,1.928757667541504,0.08269307762384415,-0.06022770330309868,0.023532696068286896
1740479944.8949344,-0.8165240287780762,-9.51618766784668,2.0118954181671143,0.01989101804792881,-0.21663479506969452,0.11290189623832703
1740479945.083172,-0.8141306042671204,-9.520967483520508,2.0194132328033447,0.0835222452878952,-0.08932872116565704,-0.036559414118528366
1740479945.2590709,-0.8261238932609558,-9.528257369995117,2.07846736907959,0.14320841431617737,-0.06006312370300293,-0.00669854786247015
1740479945.5202205,-0.8212620615959167,-9.53285026550293,2.000084638595581,-0.09649742394685745,0.11550343781709671,-0.03590959310531616
1740479945.8890917,-0.8592434525489807,-9.542356491088867,1.9286036491394043,-0.012909906916320324,-0.02511124685406685,0.14384563267230988
1740479946.2890427,-0.8521584272384644,-9.530488967895508,1.9617356061935425,-0.039979539811611176,-0.08597483485937119,-0.09792763739824295
1740479946.6513531,-0.8165847063064575,-9.499594688415527,2.0521600246429443,-0.12927253544330597,0.28731316328048706,0.08211202174425125
1740479947.0563087,-0.9020965695381165,-9.523500442504883,1.9547568559646606,0.10862080752849579,0.11848367750644684,0.05179153010249138
1740479947.4833875,-0.8355413675308228,-9.528144836425781,2.0048398971557617,0.07894633710384369,0.19979406893253326,-0.00856318324804306
1740479947.8358374,-0.7427293062210083,-9.544412612915039,1.9617356061935425,0.0787668526172638,0.34658563137054443,-0.03725355118513107
1740479948.1916077,-0.8403774499893188,-9.54012393951416,2.039964199066162,-0.22599489986896515,0.09153208881616592,-0.09660670906305313
1740479948.6188939,-0.8498255014419556,-9.499558448791504,1.982825517654419,0.1049552634358406,-0.061685893684625626,-0.1886846125125885
1740479949.023392,-0.7950894832611084,-9.568418502807617,1.9734693765640259,-0.01667855493724346,0.2457013577222824,0.1432614028453827
1740479949.48453,-0.7688208222389221,-9.577689170837402,1.8901777267456055,0.13051633536815643,-0.16744071245193481,0.10976307094097137
1740479949.894663,-0.8022803664207458,-9.504232406616211,2.016265392303467,0.0763186663389206,0.2990456223487854,-0.03747834265232086
1740479950.3011518,-0.9402113556861877,-9.564135551452637,1.9733153581619263,0.1689862608909607,0.3312968611717224,-0.21759814023971558
1740479950.5413806,-0.7666200995445251,-9.504121780395508,2.023167133331299,-0.2835318148136139,0.42104995250701904,-0.09540600329637527
1740479950.7227051,-0.7811039090156555,-9.578337669372559,2.1968836784362793,-0.6778249144554138,0.29478952288627625,0.05542701110243797
1740479950.9283738,-0.8070772886276245,-9.509072303771973,2.0471737384796143,0.20246370136737823,0.7349310517311096,-0.18560265004634857
1740479951.1196635,-0.8095060586929321,-9.468667030334473,2.0827605724334717,-0.011297144927084446,0.577637791633606,-0.06565660983324051
1740479951.3028116,-0.8640322089195251,-9.542383193969727,1.9378058910369873,-0.06536179035902023,0.1814247965812683,-0.847117006778717
1740479951.4991484,-0.8426844477653503,-9.513806343078613,1.9756159782409668,-0.16107383370399475,0.14562109112739563,-0.45715466141700745
1740479951.7030754,-0.7428088784217834,-9.539717674255371,2.001692056655884,0.04736131802201271,0.637560248374939,0.08432421833276749
1740479951.9077418,-0.7714230418205261,-9.60898494720459,2.058830738067627,-0.3140578269958496,0.66715008020401,0.11590240150690079
1740479952.1809978,-0.7903415560722351,-9.592193603515625,1.9660285711288452,-0.1689017415046692,0.478790819644928,0.41417163610458374
1740479952.360804,-0.8307496309280396,-9.530363082885742,1.9398753643035889,-0.13328778743743896,0.2670809030532837,-0.1867731511592865
1740479952.5462267,-0.8284640908241272,-9.556694984436035,2.013579845428467,-0.077361561357975,-0.013023851439356804,-0.03854816034436226
1740479952.7287652,-0.8950386643409729,-9.547327995300293,1.9825947284698486,-0.19119659066200256,0.2065553218126297,-0.4267466962337494
1740479952.921469,-0.8211965560913086,-9.53264331817627,1.9065126180648804,-0.1663614958524704,0.23378153145313263,0.023064808920025826
1740479953.1310122,-0.909328818321228,-9.502147674560547,1.9920276403427124,0.049186788499355316,0.23769570887088776,-0.3675729036331177
1740479953.3342588,-0.8426879048347473,-9.499505043029785,1.970706820487976,0.2861635386943817,0.11293686181306839,-0.12928391993045807
1740479953.5291147,-0.7404192090034485,-9.551608085632324,1.9970139265060425,0.22521156072616577,-0.07213625311851501,-0.18997016549110413
1740479953.7179923,-0.909150242805481,-9.480474472045898,1.866324782371521,0.35029545426368713,0.02433137781918049,-0.4897925555706024
1740479953.9070225,-0.8902941942214966,-9.585443496704102,1.9969369173049927,-0.0159557294100523,0.20374740660190582,0.022319987416267395
1740479954.1651065,-0.6691909432411194,-9.656363487243652,2.106382131576538,-0.3820544481277466,-0.04727805778384209,0.2323445975780487
1740479954.3589847,-0.8734887838363647,-9.575603485107422,1.8683944940567017,-0.16442431509494781,0.29648852348327637,-0.09655846655368805
1740479954.551731,-0.8830706477165222,-9.542400360107422,1.9207009077072144,-0.06869134306907654,0.2390173226594925,-0.5769907236099243
1740479954.740427,-0.6262090802192688,-9.584490776062012,1.9634199142456055,0.07642680406570435,0.2971438467502594,-0.09751597046852112
1740479954.9403746,-0.7715423107147217,-9.502004623413086,2.1491012573242188,-0.10463260859251022,0.14292198419570923,-0.15755629539489746
1740479955.1258976,-0.7189502716064453,-9.494302749633789,1.9542948007583618,0.31275129318237305,0.14224255084991455,0.20061896741390228
1740479955.3193693,-0.8354763388633728,-9.518394470214844,1.9039808511734009,0.28927817940711975,0.36107316613197327,-0.21795867383480072
1740479955.5511713,-0.9428049921989441,-9.512052536010742,2.127548933029175,-0.09956877678632736,0.36161428689956665,-0.42630043625831604
1740479955.773371,-0.8119064569473267,-9.544891357421875,2.092116594314575,-0.37552309036254883,0.23463882505893707,-0.09602437913417816
1740479956.071063,-1.1185975074768066,-9.42415714263916,1.9374207258224487,-0.3007271885871887,1.3230494260787964,-0.5103838443756104
1740479956.3297095,-0.7976933717727661,-9.566302299499512,2.112975597381592,-0.01398363895714283,0.11099616438150406,-0.24808631837368011
1740479956.509592,-0.8877440690994263,-9.497040748596191,1.8541288375854492,0.3778294026851654,0.021510310471057892,-0.3100430369377136
1740479956.6979537,-0.7905067801475525,-9.540016174316406,2.0773894786834717,0.309466689825058,-0.07774205505847931,0.25938332080841064
1740479956.8832273,-0.7095138430595398,-9.787254333496094,2.001538038253784,1.6241763830184937,0.37369468808174133,-1.0027587413787842
1740479957.0813878,-0.8664132356643677,-9.501884460449219,1.9280648231506348,0.8272732496261597,0.02260381169617176,-0.10189905017614365
1740479957.2591944,-0.8831949234008789,-9.618759155273438,2.0036075115203857,-0.9487811326980591,0.3528207242488861,0.026745080947875977
1740479957.4896142,-0.7903596758842468,-9.599365234375,1.9802939891815186,0.07158868759870529,-0.19843360781669617,-0.04011426120996475
1740479957.7757242,-0.7143482565879822,-9.55634880065918,2.0391170978546143,-0.014924163930118084,0.23302613198757172,-0.0975341722369194
1740479958.0720928,-0.8617874979972839,-9.52822208404541,2.0132718086242676,0.044288527220487595,0.20287376642227173,-0.007940655574202538
1740479958.465852,-0.7785438895225525,-9.477917671203613,2.008131504058838,0.34364834427833557,0.04736537113785744,-0.009985783137381077
1740479958.7802002,-0.7714381814002991,-9.59941577911377,2.0440261363983154,-0.6503914594650269,0.41374126076698303,0.2957455813884735
1740479959.068342,-0.6381491422653198,-9.539339065551758,1.991796851158142,0.43872910737991333,-0.040247999131679535,-0.4305720329284668
1740479959.3563607,-0.7619441151618958,-9.520816802978516,2.053382396697998,0.16624967753887177,0.2032918483018875,-0.15837626159191132
1740479959.6559756,-0.9236047267913818,-9.509295463562012,1.9749997854232788,-0.2863014042377472,0.478471040725708,0.11473175883293152
1740479959.9332814,-0.7785133123397827,-9.465982437133789,1.9916428327560425,0.41147199273109436,0.05351440981030464,-0.6098934412002563
1740479960.2280064,-0.7882440686225891,-9.502079963684082,2.1652820110321045,-0.3709681034088135,0.8213291764259338,-0.09300940483808517
1740479960.6098647,-0.8333298563957214,-9.640177726745605,2.0797669887542725,-0.4945298731327057,-0.1671105921268463,-0.5474868416786194
1740479960.9201791,-0.7119030356407166,-9.487180709838867,1.986810564994812,0.7397344708442688,0.5146880745887756,-0.039066120982170105
1740479961.2358994,-0.6808130145072937,-9.501117706298828,1.8608765602111816,0.5529388189315796,0.3558691740036011,0.3506416380405426
1740479961.5270076,-0.8497054576873779,-9.52547836303711,1.8537440299987793,-0.04758444055914879,-0.10755791515111923,-0.12917564809322357
1740479961.8010998,-0.8165669441223145,-9.537514686584473,1.9772231578826904,-0.05035780742764473,-0.11007241904735565,0.08069632947444916
1740479962.0551744,-0.7880913019180298,-9.520853042602539,2.0294525623321533,-0.05035082623362541,-0.14116401970386505,0.05053972452878952
1740479962.3234067,-0.7975836396217346,-9.511351585388184,2.0225510597229004,-0.0182858444750309,-0.20045052468776703,-0.12978099286556244
1740479962.6192684,-0.7880100011825562,-9.532630920410156,1.9652584791183472,0.04450053349137306,-0.017149142920970917,-0.06591707468032837
1740479962.8736289,-0.8165016174316406,-9.516009330749512,1.9370359182357788,0.10845132917165756,0.32321134209632874,-0.15342047810554504
1740479963.1208868,-0.8737688064575195,-9.497394561767578,2.0628156661987305,0.04482512176036835,0.1348457783460617,-0.03424865007400513
1740479963.302398,-0.8428186774253845,-9.494889259338379,2.051081895828247,-0.016770336776971817,-0.08149351179599762,-0.06511267274618149
1740479963.5095177,-0.8499511480331421,-9.537759780883789,2.043872117996216,0.047762155532836914,0.2912628948688507,-0.15336541831493378
1740479963.6971507,-0.7165687084197998,-9.575169563293457,1.917938232421875,0.046584710478782654,0.10583367943763733,-0.18431390821933746
1740479963.880159,-0.7783682942390442,-9.622939109802246,1.884806513786316,-0.22386401891708374,0.3213996887207031,-0.062154002487659454
1740479964.0852916,-0.7903037071228027,-9.53730583190918,1.9132601022720337,0.07090483605861664,-0.14434580504894257,0.11412421613931656
1740479964.2727349,-0.8164947032928467,-9.532638549804688,1.9201617240905762,-0.10859095305204391,-0.14509381353855133,-0.005132460501044989
1740479964.462205,-0.7310129404067993,-9.554024696350098,2.0413403511047363,0.3079947531223297,-0.33206599950790405,0.26208606362342834
1740479964.6750524,-0.7880564332008362,-9.556527137756348,2.005753993988037,-0.16818292438983917,-0.1140778586268425,-0.034717731177806854
1740479964.8738363,-0.8308489322662354,-9.518545150756836,1.9916428327560425,-0.04587424546480179,-0.050092052668333054,-0.12480095028877258
1740479965.136112,-0.7998984456062317,-9.549331665039062,1.9605034589767456,-0.05055183917284012,-0.3007398247718811,0.05377836897969246
1740479965.333712,-0.8093985319137573,-9.542213439941406,1.955902338027954,-0.04578892141580582,0.011313369497656822,-0.09450164437294006
1740479965.5250673,-0.8380019664764404,-9.501869201660156,1.9816703796386719,0.16156066954135895,-0.20736347138881683,-0.006562437862157822
1740479965.7071908,-0.8213187456130981,-9.535140991210938,1.9724681377410889,0.07166645675897598,-0.23710030317306519,-0.036314647644758224
1740479965.8951685,-0.8499326109886169,-9.518633842468262,2.0102009773254395,-0.10748995840549469,-0.022194037213921547,-0.034507010132074356
1740479966.101261,-0.8285475373268127,-9.50910472869873,2.0413403511047363,-0.10877864807844162,-0.11469414085149765,0.02500455267727375
1740479966.282688,-0.7976886630058289,-9.5186128616333,2.086360454559326,0.10453535616397858,-0.020190751180052757,-0.1252799928188324
1740479966.4702137,-0.7906053066253662,-9.463940620422363,2.1437301635742188,0.1642787754535675,0.1955668032169342,-0.004423434846103191
1740479966.6552396,-0.7643570303916931,-9.470833778381348,2.064962387084961,0.017871025949716568,0.3140369653701782,-0.2104422152042389
1740479966.8317487,-0.8498328328132629,-9.520877838134766,1.939028263092041,-0.011239870451390743,0.3765299916267395,-0.23997387290000916
1740479967.026757,-0.7833175659179688,-9.427912712097168,2.005445957183838,-0.012434395961463451,0.3443112373352051,-0.18018674850463867
1740479967.2283762,-0.8951195478439331,-9.585441589355469,2.0006906986236572,0.22497904300689697,0.4044608473777771,0.14901979267597198
1740479967.4132829,-0.7880464792251587,-9.535052299499512,1.9865026473999023,-0.07433391362428665,0.31235986948013306,-0.06016423553228378
1740479967.6152575,-0.7451580166816711,-9.52768611907959,1.9439374208450317,0.07498478889465332,0.09724251925945282,-0.091847725212574
1740479967.8150604,-0.8831656575202942,-9.55199909210205,1.9652584791183472,-0.0461413711309433,0.15762680768966675,-0.0011055368231609464
1740479968.0068343,-0.9474056363105774,-9.495038986206055,1.9578176736831665,0.19584177434444427,0.06578797101974487,-0.182486429810524
1740479968.190389,-0.8973938226699829,-9.52816390991211,1.9295949935913086,0.22784283757209778,0.40732142329216003,-0.06084241345524788
1740479968.3794754,-0.8736299276351929,-9.559041976928711,1.9340420961380005,-0.22775503993034363,0.09347967058420181,-0.0007585378480143845
1740479968.5652835,-0.8237041234970093,-9.544665336608887,1.9699366092681885,-0.16822433471679688,-0.18324397504329681,-0.12236475944519043
1740479968.7619042,-0.8831195831298828,-9.528085708618164,1.9174761772155762,-0.07758430391550064,-0.2140459418296814,-0.18287111818790436
1740479968.956751,-0.790374219417572,-9.542122840881348,1.9460840225219727,-0.014976960606873035,0.0038524235133081675,-0.21194669604301453
1740479969.1996894,-0.7689520716667175,-9.542032241821289,1.93657386302948,-0.019032072275877,-0.1222539022564888,0.027280259877443314
1740479969.3895206,-0.7690415978431702,-9.52785587310791,1.9957817792892456,0.04231636971235275,-0.09125476330518723,-0.0627773180603981
1740479969.5984206,-0.8070831894874573,-9.527998924255371,1.9985443353652954,-0.017944393679499626,-0.2717079222202301,-0.031231313943862915
1740479969.7987018,-0.7929062247276306,-9.525653839111328,2.047934055328369,0.04367349296808243,-0.14673830568790436,-0.08819426596164703
1740479969.988071,-0.8117395043373108,-9.534960746765137,1.903133749961853,-0.01739480346441269,-0.1778276413679123,0.06278519332408905
1740479970.1796575,-0.8070199489593506,-9.56117057800293,1.9219233989715576,-0.04674021899700165,-0.14355023205280304,0.004554389044642448
1740479970.378371,-0.8118000626564026,-9.539799690246582,1.9433985948562622,0.0723479613661766,-0.25977903604507446,0.0938045084476471
1740479970.6237063,-0.7689852714538574,-9.551609992980957,1.9627269506454468,0.07322114706039429,-0.3722873032093048,0.034033551812171936
1740479970.8711624,-0.7951926589012146,-9.544595718383789,1.9863485097885132,0.014470369555056095,-0.24011114239692688,0.03476576879620552
1740479971.2130826,-0.7905122637748718,-9.506572723388672,2.036046266555786,-0.07340792566537857,-0.0769447386264801,-0.022494900971651077
1740479971.4312563,-0.7762690186500549,-9.525689125061035,2.086514472961426,0.05307961627840996,0.1761063188314438,-0.2267632931470871
1740479971.638234,-0.6618984341621399,-9.570198059082031,1.9147906303405762,0.08301115036010742,0.04842546582221985,-0.4375283122062683
1740479971.8295503,-0.7926868796348572,-9.508688926696777,1.89377760887146,0.16777372360229492,0.20035450160503387,0.16266699135303497
1740479972.0200136,-0.671535849571228,-9.506135940551758,2.01472544670105,-0.0973505899310112,0.20226924121379852,-0.34604278206825256
1740479972.1999774,-0.7595781087875366,-9.573180198669434,2.0483193397521973,-0.21975809335708618,0.6945620775222778,0.1967882364988327
1740479972.389105,-0.6380652189254761,-9.622466087341309,1.8912460803985596,0.23289728164672852,0.3575456142425537,-0.13662318885326385
1740479972.697912,-0.7880229353904724,-9.44926929473877,1.9601953029632568,-0.09724818170070648,0.11046426743268967,-0.4064790904521942
1740479972.9793973,-0.6547927856445312,-9.44642448425293,1.9506850242614746,0.8651930093765259,0.2984224855899811,-0.169420063495636
1740479973.3460329,-0.7713301181793213,-9.475334167480469,1.9244548082351685,0.16707293689250946,-0.016683897003531456,0.041563477367162704
1740479973.7170212,-0.8094325065612793,-9.565974235534668,1.940789818763733,0.41083186864852905,0.3857499063014984,0.07267089188098907
1740479974.023351,-0.778449535369873,-9.527681350708008,1.895616054534912,0.10483787208795547,-0.2043542116880417,0.04078744724392891
1740479974.3347425,-0.8904227614402771,-9.492612838745117,2.0336687564849854,0.29670295119285583,0.6675980687141418,-0.22522015869617462
1740479974.6675599,-0.8809008002281189,-9.5640287399292,2.0362002849578857,0.10761865228414536,0.32256919145584106,0.22349271178245544
1740479974.966062,-0.6428574323654175,-9.41530704498291,1.8955390453338623,0.8652158379554749,0.2351151555776596,-0.25975701212882996
1740479975.2857392,-0.6763151288032532,-9.327569007873535,2.0240814685821533,0.08602143079042435,0.35839909315109253,-0.4658997058868408
1740479975.6670725,-0.8309844136238098,-9.401941299438477,2.045248508453369,-1.9700895547866821,0.12764306366443634,0.020742664113640785
1740479975.9924119,-0.8332298994064331,-9.661337852478027,1.9552091360092163,0.6448006629943848,0.5364856123924255,0.7621980309486389
1740479976.309921,-0.9307723641395569,-9.430681228637695,1.9575096368789673,0.2633538544178009,0.01782440021634102,-0.43841123580932617
1740479976.6345437,-0.6883249282836914,-9.551592826843262,2.099855661392212,0.10240382701158524,0.008785572834312916,0.37172365188598633
1740479976.9374542,-0.8284218311309814,-9.511184692382812,1.9002171754837036,0.673775851726532,0.19572308659553528,0.580348014831543
1740479977.2866821,-0.7379946708679199,-9.572778701782227,1.8885602951049805,-0.10825550556182861,-0.5146833658218384,0.010019034147262573
1740479977.6011608,-0.7760418653488159,-9.482394218444824,1.876672387123108,-0.12358317524194717,-2.004530191421509,0.18213601410388947
1740479977.8602574,-0.81922847032547,-9.585477828979492,2.154616594314575,-0.6524801254272461,-1.2279871702194214,-0.3514249622821808
1740479978.1043553,-0.6669238805770874,-9.637262344360352,2.1069884300231934,0.2956183850765228,-1.6974871158599854,0.5718598961830139
1740479978.281189,-0.9453433752059937,-9.62641429901123,2.17348313331604,-1.8640754222869873,-1.5773543119430542,-0.0486459955573082
1740479978.4735577,-0.9642549157142639,-9.638223648071289,2.0904994010925293,-1.5392142534255981,-1.3331396579742432,0.6710069179534912
1740479978.663152,-0.8640027642250061,-9.582581520080566,1.8193799257278442,-0.7525625824928284,-1.7898536920547485,0.03580786660313606
1740479978.8430665,-0.6570236086845398,-9.422340393066406,1.8147789239883423,0.8636810779571533,-1.6971948146820068,0.9294525980949402
1740479979.0306726,-0.8334631323814392,-9.764041900634766,2.116421699523926,-0.9692390561103821,-1.6413382291793823,0.6071346998214722
1740479979.2181983,-0.9496274590492249,-9.485228538513184,1.8147789239883423,-0.24375490844249725,-2.12835955619812,0.062012843787670135
1740479979.3988025,-0.7547540664672852,-9.542036056518555,1.9693204164505005,0.2168637216091156,-1.2882804870605469,-0.05532026290893555
1740479979.5870569,-0.7857385873794556,-9.596992492675781,2.0120394229888916,-0.17793332040309906,-1.1076021194458008,0.3369824290275574
1740479979.7584364,-0.845203161239624,-9.63528823852539,2.0097391605377197,-1.1696586608886719,-0.7093505263328552,0.4629494249820709
1740479979.9505541,-0.8618029952049255,-9.530475616455078,1.9644883871078491,0.04061134532094002,-0.7315309047698975,-0.02171345241367817
1740479980.1368265,-0.7594493627548218,-9.508578300476074,1.9048182964324951,0.3356694281101227,-0.6429855227470398,0.5172805786132812
1740479980.3269997,-0.8356298804283142,-9.508975982666016,1.9718520641326904,-0.22754375636577606,-0.3908141851425171,0.011151878163218498
1740479980.5168467,-0.7976210713386536,-9.547004699707031,2.0025291442871094,-0.1133887991309166,-0.8269967436790466,0.18828357756137848
1740479980.767516,-0.7951887845993042,-9.556401252746582,1.9451597929000854,0.06549336761236191,-0.9519139528274536,0.21686892211437225
1740479980.9563298,-0.8070225715637207,-9.461112976074219,1.9048951864242554,0.24776431918144226,-0.9186840653419495,0.12638649344444275
1740479981.1492026,-0.7595303058624268,-9.60873794555664,1.9762992858886719,-0.17420125007629395,-0.6738650798797607,0.3392447233200073
1740479981.3410184,-0.8355929255485535,-9.516034126281738,1.9312022924423218,-0.1700177788734436,-0.7938982248306274,-0.08117781579494476
1740479981.5414114,-0.7476294040679932,-9.487261772155762,1.9788308143615723,0.1585608571767807,-0.6092636585235596,0.27831676602363586
1740479981.7311513,-0.7929604649543762,-9.563774108886719,2.064038038253784,-0.11550478637218475,-0.8604280948638916,0.30802014470100403
1740479981.9175742,-0.8975147008895874,-9.552079200744629,1.9907186031341553,-0.05758586525917053,-0.9220214486122131,0.487414687871933
1740479982.1080873,-0.8189699053764343,-9.56600284576416,1.9428592920303345,0.34455838799476624,-0.6367377638816833,-0.20234771072864532
1740479982.3003764,-0.7501205205917358,-9.515983581542969,2.052227258682251,0.09704755991697311,-0.6731704473495483,0.30817440152168274
1740479982.481104,-0.9426048398017883,-9.552011489868164,1.8857207298278809,-0.23160937428474426,-0.9503020644187927,-0.11177606135606766
1740479982.74938,-0.6880124807357788,-9.513031005859375,1.864707589149475,0.48784691095352173,-0.7941828370094299,0.3060244023799896
1740479982.9331732,-0.8762409687042236,-9.564090728759766,2.0831358432769775,0.07527511566877365,-0.14359150826931,0.011206773109734058
1740479983.1186123,-0.8189755082130432,-9.446966171264648,1.954901099205017,-0.07767051458358765,-1.1005438566207886,-0.47296467423439026
1740479983.3133821,-0.8309466242790222,-9.509048461914062,2.019172191619873,-0.5651731491088867,-0.70563143491745,0.28066325187683105
1740479983.499667,-0.866573691368103,-9.506661415100098,1.9594252109527588,0.5788188576698303,-1.1337393522262573,-0.02599484659731388
1740479983.689772,-0.8498774766921997,-9.53035831451416,1.9285938739776611,0.24829840660095215,-0.7645211219787598,0.18715718388557434
1740479983.884281,-0.8474818468093872,-9.43508243560791,1.9191606044769287,0.06540105491876602,-0.9822278618812561,0.21672622859477997
1740479984.0859745,-0.7952201962471008,-9.48978328704834,1.973767638206482,-0.07903838902711868,-0.6090459823608398,-0.020619820803403854
1740479984.2655494,-0.8618515729904175,-9.594827651977539,1.995242714881897,-0.05434794723987579,-0.8589651584625244,0.2478337585926056
1740479984.4507418,-0.8119747638702393,-9.511432647705078,2.0546047687530518,-0.2608555853366852,-0.6105780005455017,0.07004451006650925
1740479984.6339965,-0.90220707654953,-9.5162353515625,1.9238388538360596,0.21330653131008148,-0.983770489692688,0.4260156452655792
1740479984.8302386,-0.6953866481781006,-9.496711730957031,2.0331294536590576,-0.1726798266172409,-0.8893415331840515,0.038234151899814606
1740479985.0178812,-0.7572937607765198,-9.489850997924805,2.0734713077545166,-0.08578852564096451,-0.6451696753501892,0.4889349937438965
1740479985.196365,-0.7500783801078796,-9.587355613708496,2.0189414024353027,-0.4232580363750458,-0.866019606590271,0.8489357233047485
1740479985.3801026,-0.7098059058189392,-9.44222640991211,2.152085065841675,-0.6532639861106873,-0.9209627509117126,-0.07996095716953278
1740479985.6388285,-0.7644665837287903,-9.611377716064453,2.1020021438598633,-0.5929552912712097,-0.7671559453010559,0.010547526180744171
1740479985.8918962,-0.809575617313385,-9.532784461975098,2.023388147354126,0.45146724581718445,-1.5096924304962158,0.24236264824867249
1740479986.189944,-0.5334894061088562,-9.434051513671875,1.9285168647766113,1.350708246231079,-1.354034662246704,0.7194017171859741
1740479986.4033585,-0.9332897067070007,-9.571335792541504,2.0401852130889893,-2.2043445110321045,-2.2018849849700928,0.21925224363803864
1740479986.6256115,-0.5833441615104675,-9.460232734680176,1.840392827987671,0.9913182854652405,-1.23142409324646,0.6314994692802429
1740479986.944336,-0.8045783042907715,-9.541929244995117,1.8380153179168701,-1.320238709449768,-1.2666007280349731,0.010784181766211987
1740479987.2511582,-1.1210123300552368,-9.457292556762695,1.859182357788086,0.10601869225502014,-0.5144900679588318,-0.3507321774959564
1740479987.5723212,-1.0852454900741577,-9.590424537658691,1.8047294616699219,-0.15163186192512512,-0.896156370639801,0.7577243447303772
1740479987.869386,-0.8189161419868469,-9.620670318603516,1.8927762508392334,0.016043804585933685,-1.222192406654358,-0.863807201385498
1740479988.2487597,-0.9450520873069763,-9.649730682373047,1.928285837173462,0.6253736019134521,-0.6509279012680054,1.415592074394226
1740479988.5724618,-0.7760878205299377,-9.551417350769043,1.871070146560669,-0.049949660897254944,-0.45726922154426575,0.12993693351745605
1740479988.8999627,-1.0663506984710693,-9.500045776367188,1.897146463394165,0.2116791307926178,-1.1409623622894287,0.3951511085033417
1740479989.2176538,-0.795301079750061,-9.570826530456543,2.0185561180114746,-0.05475247651338577,-0.5528044104576111,0.4592895209789276
1740479989.5157716,-0.6597144603729248,-9.496581077575684,2.0305209159851074,-0.176538348197937,-1.046971321105957,0.21730035543441772
1740479989.8037355,-0.9950363636016846,-9.659446716308594,1.942397117614746,-0.6539035439491272,-0.8922936916351318,-0.04987296089529991
1740479990.1327202,-0.9425114393234253,-9.528053283691406,1.8120161294937134,0.10210443288087845,-0.4233863055706024,0.06958688795566559
1740479990.507571,-0.9188601970672607,-9.521016120910645,1.9092652797698975,0.01060180738568306,-0.733557939529419,-0.08163262158632278
1740479990.8433595,-0.8642841577529907,-9.575820922851562,2.0186331272125244,-0.3868730664253235,-0.6161074638366699,0.49026232957839966
1740479991.1717634,-0.8236523866653442,-9.55392837524414,1.8567278385162354,0.40166592597961426,-0.6714776754379272,-0.02290845476090908
1740479991.4636297,-0.726121723651886,-9.501249313354492,1.8712241649627686,0.8537213206291199,-0.7918049693107605,-0.11525875329971313
1740479991.6978378,-0.9259848594665527,-9.468632698059082,1.8997551202774048,-0.43820056319236755,-0.7333528399467468,-0.3197317123413086
1740479991.8867717,-0.7857205271720886,-9.58022689819336,1.9710819721221924,-0.44155290722846985,-0.6124529242515564,0.040731579065322876
1740479992.0783985,-0.7523807287216187,-9.5538969039917,1.9546700716018677,0.0038738446310162544,-0.9839512705802917,0.3068971037864685
1740479992.2509494,-0.79283607006073,-9.56116771697998,1.9544390439987183,-0.4088425934314728,-0.6105055212974548,-0.16927845776081085
1740479992.4381654,-0.9046655893325806,-9.509166717529297,1.9637951850891113,0.09806515276432037,-0.5817084908485413,0.2486334592103958
1740479992.625905,-0.8192737102508545,-9.664063453674316,2.163587808609009,-0.14383773505687714,-0.367404580116272,0.49060314893722534
1740479992.8362734,-0.7977307438850403,-9.635228157043457,2.0662617683410645,-0.6186215281486511,-0.795248806476593,-0.3793048560619354
1740479993.0956118,-0.9237130880355835,-9.361625671386719,1.9805152416229248,-0.27875417470932007,-0.5110852122306824,-0.8889034390449524
1740479993.2761054,-0.8237800598144531,-9.492223739624023,1.9614177942276,0.4310929477214813,-1.0105098485946655,-0.20470942556858063
1740479993.4624877,-0.9071645140647888,-9.504618644714355,2.0661845207214355,0.41899192333221436,-1.234148383140564,0.6337404251098633
1740479993.7390447,-1.0493159294128418,-9.335083961486816,1.5951955318450928,0.6952762603759766,-1.4458951950073242,0.03181856498122215
1740479993.9955063,-0.7288297414779663,-9.644611358642578,2.1158053874969482,-0.5154451727867126,-0.86994469165802,0.9391663074493408
1740479994.233293,-0.8549166321754456,-9.676015853881836,2.12784743309021,-0.5683251023292542,-0.5563195943832397,0.5812317132949829
1740479994.426423,-0.9376598596572876,-9.365915298461914,1.7189059257507324,1.2134286165237427,-1.7164874076843262,-0.6612899899482727
1740479994.651584,-0.9143493175506592,-9.328502655029297,2.1042256355285645,-1.1175371408462524,-1.4257863759994507,0.5488548874855042
1740479994.8689268,-0.7830920815467834,-9.501227378845215,1.7664573192596436,1.19168221950531,0.4462536573410034,0.21973992884159088
1740479995.116557,-0.7550452947616577,-9.706706047058105,2.161133289337158,-0.9835302829742432,1.963436245918274,-0.5732415914535522
1740479995.3060226,-1.0283151865005493,-9.547605514526367,1.9258313179016113,0.26726964116096497,1.1886844635009766,0.01742561347782612
1740479995.5106812,-0.6931131482124329,-9.549189567565918,2.0896522998809814,-0.07162746042013168,0.6880919933319092,0.2559787333011627
1740479995.729713,-0.8286541104316711,-9.437642097473145,2.0493106842041016,0.1446073055267334,0.41572755575180054,-0.3759761452674866
1740479995.9231045,-0.7501158118247986,-9.544493675231934,2.0256118774414062,0.22815126180648804,0.7197399139404297,0.40489858388900757
1740479996.1069105,-0.7786732316017151,-9.554121971130371,2.030290126800537,0.2699925899505615,0.9743350148200989,-0.37352868914604187
1740479996.2800095,-0.8832743763923645,-9.642439842224121,1.963487148284912,-0.25465822219848633,0.7775840759277344,0.49703291058540344
1740479996.4655032,-0.8334618210792542,-9.468684196472168,2.084897041320801,-0.42771679162979126,0.9984716176986694,0.04913167655467987
1740479996.6625612,-0.671664834022522,-9.43709945678711,2.0441701412200928,0.8949939608573914,0.8470441699028015,0.10303756594657898
1740479996.867607,-0.8262322545051575,-9.609058380126953,2.0305981636047363,-0.31213846802711487,0.22659555077552795,-0.07528860121965408
1740479997.165963,-0.8999731540679932,-9.602095603942871,2.0039827823638916,0.08415316045284271,0.6612706184387207,-0.19455339014530182
1740479997.383589,-0.9760507941246033,-9.402257919311523,1.9707739353179932,-0.42721110582351685,0.7215007543563843,-0.19220508635044098
1740479997.5556908,-0.8978816270828247,-9.954977989196777,2.2346835136413574,-3.4004979133605957,1.115571141242981,-0.5681659579277039
1740479997.741004,-0.935542106628418,-9.506784439086914,1.9136353731155396,0.7783247232437134,1.3739017248153687,0.19625334441661835
1740479997.9365454,-0.7025495171546936,-9.594313621520996,2.015716552734375,1.52237069606781,0.8463740944862366,0.5203427672386169
1740479998.1390646,-0.9285904765129089,-9.642792701721191,2.0634989738464355,-0.9645525813102722,0.9691176414489746,-0.3986659348011017
1740479998.3413358,-0.9639894366264343,-9.304313659667969,1.8351757526397705,0.9478581547737122,0.5656347870826721,0.5211525559425354
1740479998.5378923,-0.8880571722984314,-9.673480033874512,1.9946266412734985,0.4204622805118561,0.5434809923171997,-0.6762381792068481
1740479998.7293577,-0.707309901714325,-9.475287437438965,2.025380849838257,0.27948057651519775,0.8669530749320984,1.2150254249572754
1740479998.9603245,-0.7881832718849182,-9.432679176330566,2.0182480812072754,0.21735432744026184,0.9788593649864197,-1.0029860734939575
1740479999.230539,-0.8310455679893494,-9.442413330078125,2.0515339374542236,0.47357720136642456,0.5073473453521729,-0.13693585991859436
1740479999.421134,-0.7976794242858887,-9.51839828491211,1.9991506338119507,0.1758783459663391,0.7855840921401978,-0.22425389289855957
1740480000.0404408,-0.9022453427314758,-9.585257530212402,1.91593599319458,-0.5519959926605225,0.5017045140266418,-0.012979800812900066
1740480000.2362864,-0.7667263150215149,-9.449213981628418,1.985039234161377,-1.0704447031021118,0.24909751117229462,0.3475695550441742
1740480000.4375243,-0.9376843571662903,-9.596919059753418,1.7306396961212158,0.714763343334198,0.10822083055973053,-0.4398287534713745
1740480000.6797013,-0.6668914556503296,-9.534711837768555,2.039569139480591,1.0720607042312622,0.9998724460601807,0.522940993309021
1740480000.9759104,-1.0067187547683716,-9.485310554504395,1.7711354494094849,-0.458021879196167,-0.20324991643428802,-0.7966358661651611
1740480001.337755,-0.8713154792785645,-9.368441581726074,1.9087263345718384,-0.031880490481853485,0.1394849568605423,-0.9464708566665649
1740480001.6390557,-0.8167678117752075,-9.563796043395996,2.0443243980407715,0.34053969383239746,0.3436613082885742,0.7622520327568054
1740480001.9260714,-0.8001646399497986,-9.5519380569458,2.094484567642212,0.6545043587684631,0.8477731943130493,0.10403427481651306
1740480002.128984,-1.0496948957443237,-9.65234088897705,1.8753633499145508,-0.32542815804481506,0.060641542077064514,0.8233470320701599
1740480002.3476508,-0.9091583490371704,-9.272954940795898,1.7278770208358765,0.08055565506219864,0.6267977356910706,0.04512122645974159
1740480002.559957,-0.7950975298881531,-9.444243431091309,1.8350216150283813,1.9945597648620605,-0.5450681447982788,0.30125248432159424
1740480002.76588,-1.168776512145996,-9.829176902770996,1.9871858358383179,0.3034725785255432,0.9854637384414673,1.7852423191070557
1740480002.9712868,-0.7242854237556458,-9.730609893798828,2.265207052230835,-1.9058464765548706,0.7735666632652283,0.05375140160322189
1740480003.1774673,-0.7286239862442017,-9.64188003540039,1.9420121908187866,-0.1868327409029007,0.8137006759643555,-0.1027417853474617
1740480003.3754323,-0.8806403875350952,-9.368145942687988,1.7468208074569702,-0.21928942203521729,0.41050150990486145,-0.22470058500766754
1740480003.5578127,-0.9573960900306702,-9.800392150878906,2.2412772178649902,-1.2668297290802002,0.9959287047386169,-0.3374185562133789
1740480003.7363343,-0.6883149147033691,-9.56576919555664,2.0539116859436035,-0.3928936719894409,1.124877691268921,-0.2501925528049469
1740480003.9927552,-0.8501325845718384,-9.442554473876953,2.0918757915496826,-0.7012406587600708,0.19388286769390106,-0.3438400626182556
1740480004.1889691,-0.785770833492279,-9.434953689575195,1.9726893901824951,0.35774242877960205,0.5395065546035767,-0.5261474251747131
1740480004.377468,-0.8999481797218323,-9.53058910369873,1.9728434085845947,0.1158326044678688,0.7849019765853882,-0.25402113795280457
1740480004.565898,-1.0426137447357178,-9.652413368225098,1.9229915142059326,0.6548219919204712,0.04570138826966286,-0.5298993587493896
1740480004.7552712,-0.8023852109909058,-9.477822303771973,1.9466133117675781,0.8334195613861084,0.5374295711517334,-0.018296316266059875
1740480004.943224,-0.7453885078430176,-9.603973388671875,2.0154082775115967,-0.007834256626665592,0.5347948670387268,-0.19490596652030945
1740480005.1589584,-0.8355064988136292,-9.494295120239258,1.794294834136963,0.4395839273929596,0.5028027892112732,0.13298441469669342
1740480005.3490167,-0.8215123414993286,-9.50424861907959,2.029982089996338,0.5915476083755493,0.5363395810127258,0.07262454181909561
1740480005.5419855,-0.9069799184799194,-9.46851634979248,1.882341980934143,0.1123565062880516,0.5353813171386719,-0.16538549959659576
1740480005.7401628,-0.9690561294555664,-9.55715274810791,2.0485403537750244,-0.5753175020217896,0.9665888547897339,-0.28035610914230347
1740480005.989645,-0.8213316202163696,-9.563498497009277,1.8873282670974731,0.02843322791159153,0.2322324961423874,-0.8862518668174744
1740480006.1823273,-0.719135582447052,-9.415668487548828,1.9634102582931519,1.0724546909332275,0.26033005118370056,-0.0506695993244648
1740480006.383208,-1.033297061920166,-9.602619171142578,2.0532186031341553,-0.5192086100578308,0.7171439528465271,-0.13197864592075348
1740480006.5829234,-0.7049999237060547,-9.363419532775879,2.060659408569336,0.6020386815071106,1.0050761699676514,-0.464691698551178
1740480006.7747116,-0.7644739151000977,-9.620790481567383,2.0582048892974854,0.1499289572238922,0.8486039042472839,-0.5536894798278809
1740480006.9680915,-0.7500044107437134,-9.482339859008789,1.91094970703125,1.136918306350708,1.0949658155441284,0.19333194196224213
1740480007.1663208,-1.0234265327453613,-9.533021926879883,1.7920714616775513,0.1671089082956314,1.1077563762664795,-1.7517521381378174
1740480007.3601227,-0.8190813064575195,-9.38744831085205,1.9774446487426758,0.593363344669342,0.8140944242477417,0.10404031723737717
1740480007.578055,-0.8071954250335693,-9.546987533569336,1.9918638467788696,-0.8186917304992676,1.057732343673706,0.020972589030861855
1740480007.756828,-0.8450831174850464,-9.570652961730957,1.8539652824401855,0.8527892827987671,0.5610971450805664,0.8812927603721619
1740480007.994694,-0.8571329116821289,-9.470911979675293,1.972766399383545,0.48124754428863525,0.6656785011291504,-0.6758848428726196
1740480008.1804686,-0.643124520778656,-9.529866218566895,2.0416388511657715,-0.8481733798980713,0.5644646883010864,-0.40130841732025146
1740480008.3675456,-0.7716230750083923,-9.566110610961914,2.087120771408081,-0.13145951926708221,0.5026757717132568,0.07531524449586868
1740480008.55533,-0.7548559904098511,-9.57059097290039,1.977367639541626,0.28905242681503296,0.13244862854480743,-0.13823141157627106
1740480008.7525144,-1.0118666887283325,-9.58587646484375,2.048694372177124,-0.5175343155860901,0.6267261505126953,-0.31234320998191833
1740480008.9581583,-1.0212301015853882,-9.55948543548584,1.932270884513855,-0.5818911194801331,0.31572139263153076,-0.19378139078617096
1740480009.150546,-0.9451144933700562,-9.473519325256348,1.9394035339355469,0.08216047286987305,0.44275903701782227,-0.22572292387485504
1740480009.3558443,-1.0236446857452393,-9.483366966247559,1.9680882692337036,0.47673681378364563,0.4779064655303955,-0.4369727373123169
1740480009.57655,-0.8997872471809387,-9.387451171875,1.8420003652572632,-0.7542232871055603,0.04381232336163521,-1.0640722513198853
1740480009.7896285,-0.7928029298782349,-9.480018615722656,1.874901294708252,0.04497423395514488,0.09758104383945465,0.07241620868444443
1740480010.0609634,-0.7407572865486145,-9.606536865234375,2.1152663230895996,-0.07908350974321365,0.4959891736507416,0.674719512462616
1740480010.3337936,-0.9596619606018066,-9.659736633300781,2.155761957168579,0.055767856538295746,0.9074625968933105,-0.19318556785583496
1740480010.8157158,-1.3615305423736572,-9.358404159545898,2.029827833175659,-1.6434781551361084,1.7448632717132568,-0.9916232228279114
1740480011.1270638,-1.0521857738494873,-9.512009620666504,1.956046462059021,-1.5323759317398071,1.8617525100708008,-0.15189127624034882
1740480011.4102795,-0.9924522042274475,-9.399442672729492,1.7346247434616089,0.5674663782119751,1.123945951461792,-0.04418005049228668
1740480011.7119093,-0.7670915126800537,-9.833135604858398,2.2581512928009033,-1.6312044858932495,1.5478448867797852,0.3266129791736603
1740480012.017382,-0.7809320688247681,-9.33477783203125,1.901208519935608,0.19899843633174896,0.008744717575609684,-0.2584730386734009
1740480012.3270643,-0.8905608057975769,-9.752209663391113,2.070246696472168,-0.22925850749015808,0.18807874619960785,0.43383243680000305
1740480012.7639837,-0.5625128746032715,-9.520447731018066,2.2362139225006104,-1.7757230997085571,0.7175284028053284,-0.8166567087173462
1740480013.1373665,-0.8859906196594238,-9.926281929016113,2.203082323074341,-2.512728691101074,1.9684981107711792,1.261791467666626
1740480013.4921076,-0.7830958962440491,-9.436834335327148,1.7275691032409668,-0.24997025728225708,0.5015750527381897,-0.13417112827301025
1740480013.8117259,-0.8310351967811584,-9.63520622253418,2.0128769874572754,-0.19394434988498688,0.7761930227279663,0.4067738354206085
1740480014.1234443,-0.7333818078041077,-9.572772026062012,1.915319800376892,-1.1558349132537842,0.0336865559220314,-0.2829839289188385
1740480014.4270318,-0.636015772819519,-9.49174690246582,2.0484633445739746,-0.21532277762889862,0.5662294626235962,-0.4638044238090515
1740480014.8306613,-0.8047029972076416,-9.692021369934082,1.8869431018829346,0.14508308470249176,1.0606135129928589,-0.012842009775340557
1740480015.3748982,-0.8548413515090942,-9.578132629394531,2.0150234699249268,-0.07171950489282608,0.253240168094635,-0.1362096518278122
1740480015.9493163,-0.9545186161994934,-9.551958084106445,1.851433515548706,-0.031156819313764572,0.29321616888046265,-0.9157044887542725
1740480016.3612072,-0.6785781979560852,-9.543883323669434,1.8488249778747559,0.705899178981781,0.06863359361886978,0.1895955353975296
1740480016.7274404,-0.7836337089538574,-9.575780868530273,2.1483213901519775,-0.6048440933227539,0.7508983016014099,-0.4912751317024231
1740480017.087849,-0.8192013502120972,-9.694774627685547,2.0531413555145264,-0.5318157076835632,0.21497578918933868,0.5250741839408875
1740480017.309665,-0.795284628868103,-9.551608085632324,1.9484517574310303,-0.908875048160553,0.06916684657335281,-0.7635412216186523
1740480017.6298168,-1.078331470489502,-9.519109725952148,1.9005924463272095,0.23285897076129913,0.4714507758617401,-0.2862200438976288
1740480017.8433406,-0.8738134503364563,-9.568588256835938,1.972304344177246,-0.10322829335927963,0.2524197995662689,-0.016143325716257095
1740480018.0650377,-0.7501980066299438,-9.513494491577148,2.02184796333313,0.16379164159297943,0.09522439539432526,0.16183707118034363
1740480018.2667036,-0.7359517812728882,-9.55880069732666,2.0699386596679688,-0.1034962609410286,0.16035456955432892,-0.046595122665166855
1740480018.485901,-0.881161093711853,-9.51893424987793,2.1387338638305664,0.01650170050561428,0.2523998022079468,0.043351832777261734
1740480018.7291713,-0.902503490447998,-9.635574340820312,2.0815954208374023,-0.09947726130485535,0.5629140734672546,-0.10448373854160309
1740480019.1774325,-0.685876190662384,-9.529862403869629,1.972381353378296,-0.3700720965862274,3.3877992630004883,-0.5382784605026245
1740480019.6361198,-0.8548873662948608,-9.554353713989258,2.0361135005950928,0.004144484177231789,1.6499767303466797,-0.4290277659893036
1740480020.1621985,-0.8096362352371216,-9.520821571350098,2.010268211364746,0.03472097963094711,1.620740294456482,-0.45925381779670715
1740480020.5875704,-0.8453077077865601,-9.551877975463867,2.000757932662964,-0.5424675941467285,1.3067409992218018,-0.2787187993526459
1740480020.9796453,-0.7265002727508545,-9.515968322753906,2.1052942276000977,-0.060596637427806854,1.4008947610855103,-0.2201681286096573
1740480021.4234836,-0.9142095446586609,-9.590083122253418,1.9366408586502075,0.3637862801551819,1.6516469717025757,-0.25049319863319397
1740480021.8535066,-0.8833978772163391,-9.52581787109375,2.007582664489746,0.20022700726985931,0.5620005130767822,-0.01575404405593872
1740480022.2657008,-0.7240942716598511,-9.563543319702148,2.0838961601257324,-0.2187705636024475,0.7478426098823547,-0.07306139916181564
1740480022.6789985,-0.8904826045036316,-9.459121704101562,1.9817376136779785,0.6732180118560791,2.1822564601898193,-0.5487738251686096
1740480023.198116,-0.8856717944145203,-9.454269409179688,1.943773627281189,0.18834379315376282,1.747037649154663,-0.6091097593307495
1740480023.6403072,-0.6810336709022522,-9.596343040466309,1.886404037475586,0.6557530760765076,1.9842495918273926,0.7095725536346436
1740480023.9541,-0.7714698910713196,-9.511015892028809,1.9318856000900269,0.5833280682563782,2.767956018447876,-0.1555263251066208
1740480024.1973312,-0.8382617831230164,-9.463871002197266,2.064798593521118,0.5950252413749695,2.6212594509124756,-1.2358096837997437
1740480024.378693,-0.6287509799003601,-9.612910270690918,1.924368143081665,1.4339303970336914,2.898439884185791,-0.6979643106460571
1740480024.5727913,-0.8595629930496216,-9.513795852661133,1.9864927530288696,0.25213780999183655,2.7047417163848877,-0.21452659368515015
1740480024.7610967,-0.8383271098136902,-9.533000946044922,2.1049861907958984,-0.3224446475505829,1.7748806476593018,-0.7269304394721985
1740480025.0284579,-0.8953788876533508,-9.537936210632324,2.0911056995391846,-0.13746421039104462,2.211444854736328,-0.7253199219703674
1740480025.2272184,-0.8144280314445496,-9.573241233825684,2.02184796333313,-0.10854607820510864,2.2404110431671143,-0.6353618502616882
